trial,reward_prob_pink,reward_prob_blue,init_state,common,choice,rt1,final_state,rt2,reward,slow
1,0.7,0.3,AA,0,left,0.44396686554,pink,3.9923620224,1,0
2,0.7,0.3,BB,1,left,1.12702608109,blue,3.44557619095,0,0
3,0.7,0.3,BA,1,left,0.79688501358,pink,2.78081917763,0,0
4,0.7,0.3,AA,0,left,0.711246967316,pink,2.46761894226,0,0
5,0.7,0.3,BB,1,left,1.35238599777,blue,1.09729909897,0,0
6,0.7,0.3,AB,0,right,0.666697978973,pink,1.46240091324,1,0
7,0.7,0.3,BA,1,left,0.198937892914,pink,0.910482883453,1,0
8,0.7,0.3,BB,1,right,0.454133987427,pink,0.715564012527,1,0
9,0.7,0.3,AB,1,right,0.342756032944,blue,2.75305104256,0,0
10,0.7,0.3,BA,1,right,0.0831091403961,blue,1.71801304817,1,0
11,0.7,0.3,AB,1,right,0.226805925369,blue,1.0823469162,1,0
12,0.7,0.3,AA,0,right,0.991425991058,blue,1.18309307098,1,0
13,0.7,0.3,AA,1,left,0.3544049263,blue,0.92435002327,0,0
14,0.7,0.3,AA,1,right,0.352056980133,pink,1.01717805862,1,0
15,0.7,0.3,AB,1,right,0.322676181793,blue,0.852777004242,0,0
16,0.7,0.3,BB,1,right,0.971873044968,pink,1.06032395363,0,0
17,0.7,0.3,BA,1,right,0.604802846909,blue,0.691972017288,1,0
18,0.7,0.3,BA,1,right,0.498224020004,blue,0.782183885574,0,0
19,0.7,0.3,AA,0,left,0.747200965881,pink,0.76430606842,0,0
20,0.7,0.3,AA,1,left,0.653505086899,blue,0.851649999619,0,0
21,0.7,0.3,BB,1,left,1.29219603539,blue,0.817121982574,0,0
22,0.7,0.3,AB,0,right,0.638015985489,pink,0.67718911171,1,0
23,0.7,0.3,BA,1,right,0.513714075089,blue,0.613219976425,0,0
24,0.7,0.3,AB,1,,,,,0,1
25,0.7,0.3,AA,1,right,0.416263103485,pink,0.479114055634,1,0
26,0.7,0.3,AA,0,right,0.560196876526,blue,0.705650806427,1,0
27,0.7,0.3,AA,1,right,0.603147983551,pink,0.587161064148,1,0
28,0.7,0.3,AB,0,left,1.09869503975,blue,0.573990106583,0,0
29,0.7,0.3,AB,1,right,0.651473045349,blue,0.625199079514,0,0
30,0.7,0.3,BB,1,right,0.697025060654,pink,0.500436067581,1,0
31,0.7,0.3,AA,1,right,0.718743801117,pink,0.577613830566,1,0
32,0.7,0.3,AA,1,right,0.466569900513,pink,0.471817970276,0,0
33,0.7,0.3,BB,0,right,0.770347833633,blue,0.459566831589,0,0
34,0.7,0.3,AB,1,right,1.96277189255,blue,0.227751016617,1,0
35,0.7,0.3,BB,1,left,0.0599210262299,blue,0.401267051697,0,0
36,0.7,0.3,BA,1,right,0.447551012039,blue,0.453568935394,1,0
37,0.7,0.3,BA,1,right,0.632771015167,blue,0.511296987534,0,0
38,0.7,0.3,AB,1,right,0.59236907959,blue,0.504364013672,0,0
39,0.7,0.3,BA,1,right,0.32599401474,blue,0.528523921967,0,0
40,0.7,0.3,BB,1,right,0.685638904572,pink,0.417709827423,1,0
41,0.7,0.3,AA,0,right,0.501538991928,blue,0.457437992096,0,0
42,0.7,0.3,AA,1,right,0.409282922745,pink,0.536354064941,1,0
43,0.7,0.3,BB,1,right,0.636100053787,pink,0.514755964279,0,0
44,0.7,0.3,BA,1,right,1.49312400818,blue,0.481098890305,0,0
45,0.7,0.3,BA,0,right,0.523697137833,pink,0.446131944656,1,0
46,0.7,0.3,AB,1,right,0.730129003525,blue,0.620836019516,0,0
47,0.7,0.3,AB,1,left,1.20534205437,pink,0.476649045944,0,0
48,0.7,0.3,AA,1,right,1.03894782066,pink,0.508327960968,0,0
49,0.7,0.3,BA,1,right,0.448778152466,blue,0.438025951385,0,0
50,0.7,0.3,AB,1,left,0.982974052429,pink,0.519283056259,0,0
51,0.7,0.3,AA,1,right,0.736906051636,pink,0.538702011108,1,0
52,0.7,0.3,BA,1,right,0.576074123383,blue,0.688942909241,0,0
53,0.7,0.3,AA,1,right,0.952445983887,pink,0.601056098938,1,0
54,0.7,0.3,BB,0,left,0.651867866516,pink,0.632364034653,1,0
55,0.7,0.3,BA,1,left,1.06071805954,pink,0.490773916245,1,0
56,0.7,0.3,BB,1,right,0.666985034943,pink,0.543409109116,1,0
57,0.7,0.3,BA,1,right,0.685997962952,blue,1.00253987312,1,0
58,0.7,0.3,BB,1,right,1.15637612343,pink,0.566210985184,1,0
59,0.7,0.3,BA,1,right,0.673127174377,blue,0.756954908371,0,0
60,0.7,0.3,BA,1,left,0.495346069336,pink,0.628179073334,1,0
61,0.7,0.3,BA,1,left,0.546980857849,pink,0.525109052658,1,0
62,0.7,0.3,AB,1,left,0.53226184845,pink,0.566670894623,1,0
63,0.7,0.3,BA,0,left,0.581032037735,blue,1.06971001625,0,0
64,0.7,0.3,AA,1,right,0.547755002975,pink,0.628856897354,0,0
65,0.7,0.3,BB,1,right,0.735108137131,pink,0.625802993774,1,0
66,0.7,0.3,AB,0,left,0.5620200634,blue,0.811063051224,0,0
67,0.7,0.3,AB,0,right,1.12636303902,pink,0.569100141525,1,0
68,0.7,0.3,BA,1,left,0.68359708786,pink,0.688335895538,1,0
69,0.7,0.3,AA,0,right,0.790042877197,blue,1.6223859787,0,0
70,0.7,0.3,BA,1,left,0.429491043091,pink,0.508238077164,0,0
71,0.7,0.3,BB,1,right,0.437615871429,pink,0.50799703598,0,0
72,0.7,0.3,BA,1,right,0.83215212822,blue,0.773957967758,0,0
73,0.7,0.3,AB,1,right,0.467396974564,blue,3.30433821678,1,0
74,0.7,0.3,AA,1,right,0.607433080673,pink,0.470206022263,1,0
75,0.7,0.3,AA,1,right,0.542179822922,pink,0.575975894928,1,0
76,0.7,0.3,AA,1,right,0.426430940628,pink,0.465687036514,1,0
77,0.7,0.3,BA,1,right,1.46529316902,blue,1.40772199631,0,0
78,0.7,0.3,AA,1,,,,,0,1
79,0.7,0.3,AA,1,right,0.469146966934,pink,0.489770889282,0,0
80,0.7,0.3,AB,1,left,0.568815946579,pink,0.601478099823,1,0
81,0.7,0.3,AA,1,right,0.431041955948,pink,0.405421972275,1,0
82,0.7,0.3,BA,1,left,0.440967082977,pink,0.662811040878,1,0
83,0.7,0.3,AB,1,right,0.656497001648,blue,0.862864971161,0,0
84,0.7,0.3,BA,1,left,0.34414601326,pink,0.602752923965,1,0
85,0.7,0.3,AB,1,right,0.935110807419,blue,0.592347860336,1,0
86,0.7,0.3,BB,1,right,0.835068941116,pink,0.537568092346,0,0
87,0.7,0.3,BB,1,left,0.544475078583,blue,0.610533952713,0,0
88,0.7,0.3,AB,1,right,0.498660802841,blue,0.661966085434,1,0
89,0.7,0.3,AA,1,right,0.680020093918,pink,0.612649917603,0,0
90,0.7,0.3,AB,1,right,0.530816078186,blue,0.628775119781,1,0
91,0.7,0.3,BA,1,right,1.05762887001,blue,0.511445045471,1,0
92,0.7,0.3,AA,0,right,0.730500936508,blue,0.549051046371,1,0
93,0.7,0.3,BA,1,right,0.850307941437,blue,0.527562856674,0,0
94,0.7,0.3,BA,1,left,0.587087869644,pink,0.603064060211,1,0
95,0.7,0.3,BA,1,left,0.32044005394,pink,0.483295917511,0,0
96,0.7,0.3,AA,1,left,0.567675828934,blue,0.552813053131,0,0
97,0.7,0.3,AA,1,right,0.465296030045,pink,0.414585113525,1,0
98,0.7,0.3,BB,1,right,0.831466913223,pink,0.629273891449,1,0
99,0.7,0.3,BB,1,right,0.560583114624,pink,0.449536085129,1,0
100,0.7,0.3,AA,1,left,0.478692054749,blue,0.467763900757,0,0
101,0.7,0.3,AB,1,right,0.415457010269,blue,0.374127149582,0,0
102,0.7,0.3,AB,1,left,0.373958826065,pink,0.518475055695,1,0
103,0.7,0.3,BB,0,right,0.305884122849,blue,0.470093011856,1,0
104,0.7,0.3,BA,0,right,0.357628107071,pink,0.350811004639,0,0
105,0.7,0.3,AA,0,right,0.433537006378,blue,0.407492160797,1,0
106,0.7,0.3,AA,1,right,0.3126308918,pink,0.299345016479,1,0
107,0.7,0.3,BB,1,right,0.371402978897,pink,0.508668899536,1,0
108,0.7,0.3,AA,1,right,0.419248819351,pink,0.529977083206,1,0
109,0.7,0.3,AB,1,left,0.379418134689,pink,0.611042022705,1,0
110,0.7,0.3,BA,1,right,0.551906824112,blue,0.561255931854,1,0
111,0.7,0.3,BB,1,right,0.384207963943,pink,0.392268896103,1,0
112,0.7,0.3,BA,1,right,0.679662942886,blue,0.610816001892,1,0
113,0.7,0.3,AA,0,right,0.361210823059,blue,0.402501106262,1,0
114,0.7,0.3,AA,1,right,0.481209993362,pink,0.50123500824,1,0
115,0.7,0.3,BA,0,right,0.474655151367,pink,0.415193080902,0,0
116,0.7,0.3,AA,1,right,0.416476011276,pink,0.35192322731,1,0
117,0.7,0.3,AA,1,right,0.436509847641,pink,0.395148992538,1,0
118,0.7,0.3,BB,1,right,0.392407178879,pink,0.320323944092,0,0
119,0.7,0.3,AB,1,left,0.507222890854,pink,0.462337017059,0,0
120,0.7,0.3,AA,1,right,0.507766962051,pink,0.478651046753,1,0
121,0.7,0.3,BA,1,right,0.422525882721,blue,0.501511096954,1,0
122,0.7,0.3,BB,1,right,0.535362958908,pink,0.936638116837,0,0
123,0.7,0.3,BB,0,right,0.399000883102,blue,0.334777116776,0,0
124,0.7,0.3,BA,0,right,0.442906141281,pink,0.433502912521,1,0
125,0.7,0.3,BA,1,right,0.458255052567,blue,0.598814964294,0,0
126,0.7,0.3,AA,1,right,0.441442012787,pink,0.463558912277,1,0
127,0.7,0.3,BA,1,right,0.396667003632,blue,0.492921829224,1,0
128,0.7,0.3,BB,1,right,0.528044223785,pink,0.666505098343,1,0
129,0.7,0.3,BA,1,right,0.524840116501,blue,0.552272081375,1,0
130,0.7,0.3,BA,1,right,0.616516113281,blue,0.663118124008,0,0
131,0.7,0.3,AB,0,left,0.474792003632,blue,0.487908124924,0,0
132,0.7,0.3,AB,1,right,0.629671096802,blue,0.363426923752,0,0
133,0.7,0.3,AA,1,right,0.361142873764,pink,0.467068910599,0,0
134,0.7,0.3,BB,1,right,0.608939170837,pink,0.528288125992,0,0
135,0.7,0.3,BB,1,right,0.465741157532,pink,0.358184099197,0,0
136,0.7,0.3,BB,1,right,0.460705041885,pink,0.625504016876,1,0
137,0.7,0.3,BB,1,right,0.437499046326,pink,0.379541158676,1,0
138,0.7,0.3,BB,1,right,0.374107122421,pink,0.326604127884,1,0
139,0.7,0.3,BA,1,right,0.594636917114,blue,0.507369995117,0,0
140,0.7,0.3,BB,1,right,0.413449048996,pink,0.444929838181,0,0
141,0.7,0.3,AB,1,left,0.526556968689,pink,0.35312795639,1,0
142,0.7,0.3,BB,1,left,0.401687860489,blue,0.800647974014,0,0
143,0.7,0.3,BA,0,right,0.411108016968,pink,0.49023604393,0,0
144,0.7,0.3,AB,0,left,0.400181055069,blue,0.511750936508,0,0
145,0.7,0.3,AB,0,left,0.830658912659,blue,0.669487953186,0,0
146,0.7,0.3,AB,1,right,0.360636949539,blue,0.546878099442,0,0
147,0.7,0.3,BB,1,right,0.494019985199,pink,0.722186088562,1,0
148,0.7,0.3,BB,1,right,0.581918954849,pink,0.534525871277,0,0
149,0.7,0.3,BA,1,left,0.587800979614,pink,0.507025003433,1,0
150,0.7,0.3,AA,1,right,0.467561006546,pink,0.624066114426,1,0
151,0.7,0.3,BB,1,right,0.347352981567,pink,0.44521689415,1,0
152,0.7,0.3,AB,1,left,0.734892845154,pink,0.489860057831,1,0
153,0.7,0.3,BB,0,right,0.408035993576,blue,0.631228923798,1,0
154,0.7,0.3,BA,1,left,1.06911087036,pink,0.522594928741,1,0
155,0.7,0.3,BA,1,left,0.567556858063,pink,0.696322917938,0,0
156,0.7,0.3,BA,1,left,0.393653869629,pink,0.505488872528,1,0
157,0.7,0.3,BA,1,left,0.355225086212,pink,0.531852960587,1,0
158,0.7,0.3,AB,1,left,0.987660884857,pink,0.380402088165,1,0
159,0.7,0.3,BA,1,right,0.983201980591,blue,0.622406005859,1,0
160,0.7,0.3,BB,1,right,0.530958890915,pink,0.565023183823,1,0
161,0.7,0.3,AB,0,left,0.54131102562,blue,0.575896978378,0,0
162,0.7,0.3,AA,0,right,0.401160955429,blue,0.937345027924,0,0
163,0.7,0.3,BB,1,right,0.329740047455,pink,0.419527053833,1,0
164,0.7,0.3,BB,1,right,0.405610799789,pink,0.3961789608,1,0
165,0.7,0.3,BB,1,right,0.396200895309,pink,0.388273000717,1,0
166,0.7,0.3,AB,1,left,0.494406938553,pink,0.466263055801,1,0
167,0.7,0.3,BB,1,right,0.408174037933,pink,0.400094985962,1,0
168,0.7,0.3,BB,1,right,0.590138912201,pink,0.445240020752,1,0
169,0.7,0.3,AB,1,left,0.43098115921,pink,0.428883075714,1,0
170,0.7,0.3,BA,1,left,0.457674026489,pink,0.519556045532,1,0
171,0.7,0.3,BB,1,right,0.387194871902,pink,0.459185123444,0,0
172,0.7,0.3,BB,1,right,0.818805932999,pink,0.45770907402,1,0
173,0.7,0.3,AB,1,left,0.421566963196,pink,0.428718805313,1,0
174,0.7,0.3,AA,1,right,0.788329839706,pink,0.452947854996,1,0
175,0.7,0.3,BA,1,left,0.396912097931,pink,0.428247928619,1,0
176,0.7,0.3,BB,1,right,0.33398604393,pink,0.552150011063,1,0
177,0.7,0.3,AB,1,left,0.371379137039,pink,0.419950008392,1,0
178,0.7,0.3,AA,1,right,0.368725061417,pink,0.505167961121,1,0
179,0.7,0.3,AB,0,left,0.378252029419,blue,2.33886599541,0,0
180,0.7,0.3,AB,1,left,0.370349168777,pink,0.418943881989,1,0
181,0.7,0.3,AA,1,right,0.324574947357,pink,0.352869987488,1,0
182,0.7,0.3,BB,0,right,0.740001916885,blue,0.342248916626,0,0
183,0.7,0.3,AA,1,right,0.356388092041,pink,0.35765004158,0,0
184,0.7,0.3,AA,1,right,0.606139183044,pink,0.405430078506,0,0
185,0.7,0.3,AB,1,left,0.368268013,pink,0.449524879456,1,0
186,0.7,0.3,AB,1,left,0.328324079514,pink,0.330583810806,1,0
187,0.7,0.3,BB,0,right,0.367588996887,blue,0.360918998718,1,0
188,0.7,0.3,BA,0,left,0.334977865219,blue,0.521855115891,0,0
189,0.7,0.3,AA,1,right,0.349936962128,pink,0.303036928177,0,0
190,0.7,0.3,BB,1,right,0.358896970749,pink,0.455707073212,1,0
191,0.7,0.3,AA,1,right,0.3862221241,pink,0.44211101532,1,0
192,0.7,0.3,AB,1,left,0.748927116394,pink,0.406219005585,0,0
193,0.7,0.3,AB,0,left,0.34626698494,blue,0.475495100021,0,0
194,0.7,0.3,BB,1,right,0.341140031815,pink,0.383758068085,0,0
195,0.7,0.3,AB,1,left,0.877066850662,pink,0.458163976669,1,0
196,0.7,0.3,AA,0,right,0.418526172638,blue,0.552991867065,1,0
197,0.7,0.3,AB,1,left,0.357278108597,pink,0.462152957916,1,0
198,0.7,0.3,BB,1,right,0.43975687027,pink,0.446462869644,1,0
199,0.7,0.3,AA,1,right,0.613363981247,pink,0.347697019577,1,0
200,0.7,0.3,AA,0,right,0.418507099152,blue,0.433679103851,1,0
201,0.7,0.3,BA,1,left,0.406219959259,pink,0.446248054504,1,0
202,0.7,0.3,AA,1,right,0.396047115326,pink,0.515247821808,0,0
203,0.7,0.3,BB,1,right,0.368098974228,pink,0.537001848221,1,0
204,0.7,0.3,AA,1,right,0.368268013,pink,0.536774873734,1,0
205,0.7,0.3,BB,1,right,0.39302110672,pink,0.673491954803,1,0
206,0.7,0.3,AA,1,right,0.438381910324,pink,0.356070041656,1,0
207,0.7,0.3,BA,1,left,0.548062086105,pink,0.677434921265,0,0
208,0.7,0.3,BA,1,left,0.503326177597,pink,0.577382087708,1,0
209,0.7,0.3,AB,0,left,0.467301130295,blue,1.76102900505,0,0
210,0.7,0.3,BA,0,left,0.419070005417,blue,1.48163509369,0,0
211,0.7,0.3,BB,1,right,0.33523106575,pink,0.440072059631,0,0
212,0.7,0.3,BA,1,left,0.322708845139,pink,0.414027929306,1,0
213,0.7,0.3,BA,1,left,0.317706823349,pink,0.465215921402,1,0
214,0.7,0.3,BA,1,left,0.480842113495,pink,0.459933042526,0,0
215,0.7,0.3,AA,0,right,0.524497032166,blue,0.655786991119,0,0
216,0.7,0.3,BB,1,right,0.619447946548,pink,0.48189496994,1,0
217,0.7,0.3,AB,1,left,0.48514509201,pink,0.49006485939,0,0
218,0.7,0.3,BB,1,right,0.389736890793,pink,0.549499034882,1,0
219,0.7,0.3,AB,1,left,0.433743000031,pink,0.398633956909,0,0
220,0.7,0.3,BA,1,left,0.739950895309,pink,0.373828887939,0,0
221,0.7,0.3,AA,1,right,0.439731121063,pink,0.421509027481,1,0
222,0.7,0.3,AA,0,right,0.478065013885,blue,0.42674612999,0,0
223,0.7,0.3,AB,1,left,0.373472929001,pink,0.366514921188,0,0
224,0.7,0.3,AB,1,left,0.572405099869,pink,0.437826156616,1,0
225,0.7,0.3,AB,1,left,0.371069908142,pink,0.339329004288,1,0
226,0.7,0.3,BB,1,right,0.479730844498,pink,0.331843137741,0,0
227,0.7,0.3,AB,1,left,0.453423023224,pink,0.450534105301,1,0
228,0.7,0.3,BA,1,left,0.649577856064,pink,0.503690004349,1,0
229,0.7,0.3,BB,1,right,0.391647100449,pink,0.42422914505,0,0
230,0.7,0.3,BA,1,left,0.372452020645,pink,0.484787940979,1,0
231,0.7,0.3,AA,1,right,0.510541915894,pink,0.473665952682,0,0
232,0.7,0.3,AB,1,left,0.391444206238,pink,0.351541996002,1,0
233,0.7,0.3,AA,1,right,0.388972043991,pink,0.349062204361,1,0
234,0.7,0.3,BA,1,left,0.38308095932,pink,0.551182985306,0,0
235,0.7,0.3,AA,1,right,0.380870819092,pink,0.365000009537,1,0
236,0.7,0.3,BB,0,right,0.41796207428,blue,0.319887161255,0,0
237,0.7,0.3,AA,0,right,0.371196985245,blue,0.299728155136,1,0
238,0.7,0.3,BA,0,left,0.364137172699,blue,0.412904024124,1,0
239,0.7,0.3,BA,1,right,0.450610876083,blue,0.408045053482,1,0
240,0.7,0.3,BB,1,right,0.429471969604,pink,0.387566804886,1,0
241,0.7,0.3,BB,1,right,0.451043128967,pink,0.504286050797,1,0
242,0.7,0.3,BA,1,right,0.769679069519,blue,0.425789833069,0,0
243,0.7,0.3,BB,1,right,0.372760057449,pink,0.357194900513,1,0
244,0.7,0.3,AB,1,right,0.855481147766,blue,0.357642889023,0,0
245,0.7,0.3,BA,1,left,0.362111091614,pink,0.258605003357,1,0
246,0.7,0.3,AB,1,left,0.658097982407,pink,0.288180112839,1,0
247,0.7,0.3,AA,1,right,0.343409061432,pink,0.305349111557,1,0
248,0.7,0.3,BB,0,right,0.421427965164,blue,0.372062921524,0,0
249,0.7,0.3,AA,1,right,0.385183095932,pink,0.466261148453,0,0
250,0.7,0.3,BA,1,right,0.472683906555,blue,0.421325922012,0,0
251,0.7,0.3,AB,1,left,0.32777094841,pink,0.330781936646,1,0
252,0.7,0.3,AA,1,right,0.378236055374,pink,0.387186050415,1,0
