trial,reward_prob_pink,reward_prob_blue,init_state,common,choice,rt1,final_state,rt2,reward,slow
1,0.7,0.3,BA,1,left,0.65320110321,pink,2.96315193176,1,0
2,0.7,0.3,BB,1,right,0.572885036469,pink,1.66915082932,1,0
3,0.7,0.3,AA,1,right,0.92796421051,pink,2.90692591667,1,0
4,0.7,0.3,BB,1,right,0.318362951279,pink,0.761398077011,1,0
5,0.7,0.3,AA,1,right,0.308398008347,pink,0.671460151672,1,0
6,0.7,0.3,AA,1,right,0.319374084473,pink,0.690623044968,0,0
7,0.7,0.3,BB,1,right,0.264022111893,pink,0.764443874359,0,0
8,0.7,0.3,BB,1,right,0.769181013107,pink,1.37042784691,1,0
9,0.7,0.3,BB,0,right,1.01868915558,blue,1.34691882133,0,0
10,0.7,0.3,AA,1,right,0.310163021088,pink,0.698359012604,1,0
11,0.7,0.3,BB,1,right,0.351963996887,pink,0.633450031281,1,0
12,0.7,0.3,AB,1,left,0.285442829132,pink,0.57022190094,0,0
13,0.7,0.3,BB,1,right,0.445709943771,pink,0.603991985321,1,0
14,0.7,0.3,AB,1,left,0.429566860199,pink,0.51550412178,1,0
15,0.7,0.3,BA,1,left,1.80138087273,pink,0.720973014832,1,0
16,0.7,0.3,AA,1,right,0.340749025345,pink,0.470934867859,1,0
17,0.7,0.3,AA,1,right,0.244757890701,pink,0.354637145996,1,0
18,0.7,0.3,BB,1,right,0.336647033691,pink,0.242707014084,1,0
19,0.7,0.3,AB,1,left,0.31679391861,pink,3.23162913322,1,0
20,0.7,0.3,BA,1,left,0.67379617691,pink,0.510648965836,1,0
21,0.7,0.3,AA,1,right,0.676848173141,pink,0.377691984177,1,0
22,0.7,0.3,AA,1,right,0.957100868225,pink,0.398447036743,1,0
23,0.7,0.3,BB,1,right,0.346348047256,pink,0.563997030258,1,0
24,0.7,0.3,AA,1,right,0.268621206284,pink,0.169216871262,0,0
25,0.7,0.3,AA,1,right,0.364144086838,pink,0.460875034332,0,0
26,0.7,0.3,AB,1,left,1.88440489769,pink,0.496479988098,0,0
27,0.7,0.3,AB,1,left,1.7793970108,pink,0.650347948074,1,0
28,0.7,0.3,AA,0,right,0.72261595726,blue,1.34935998917,0,0
29,0.7,0.3,BB,1,right,0.298301935196,pink,0.71709394455,1,0
30,0.7,0.3,BA,1,left,0.40107178688,pink,0.463509082794,1,0
31,0.7,0.3,AB,1,left,1.59085392952,pink,0.335294961929,0,0
32,0.7,0.3,BA,1,left,0.461620092392,pink,0.514811992645,1,0
33,0.7,0.3,BA,0,left,0.522356033325,blue,1.5810649395,1,0
34,0.7,0.3,BB,1,right,1.08863806725,pink,0.540531158447,1,0
35,0.7,0.3,BA,1,left,0.499976873398,pink,0.510982036591,1,0
36,0.7,0.3,AA,1,right,0.364529132843,pink,0.437284946442,0,0
37,0.7,0.3,AA,1,right,0.318521022797,pink,0.44924902916,1,0
38,0.7,0.3,AA,1,right,0.343449115753,pink,0.522105932236,1,0
39,0.7,0.3,BB,1,,,,,0,1
40,0.7,0.3,AA,1,right,0.753745079041,pink,0.451346874237,1,0
41,0.7,0.3,AB,1,left,0.409488916397,pink,0.448997974396,0,0
42,0.7,0.3,AA,1,right,0.762802839279,pink,0.442665100098,1,0
43,0.7,0.3,AA,1,right,0.32803606987,pink,0.155347108841,1,0
44,0.7,0.3,BA,1,left,0.686178922653,pink,0.426039218903,0,0
45,0.7,0.3,BA,1,left,0.247474908829,pink,0.139780044556,1,0
46,0.7,0.3,BA,0,left,0.34206700325,blue,0.00763010978699,0,0
47,0.7,0.3,BB,1,right,0.320186138153,pink,0.10822892189,1,0
48,0.7,0.3,BB,1,right,0.668279886246,pink,0.368680953979,1,0
49,0.7,0.3,BA,1,left,0.321955919266,pink,0.396386861801,1,0
50,0.7,0.3,AB,1,left,0.387965202332,pink,0.356344938278,1,0
51,0.7,0.3,BB,1,right,0.523452997208,pink,0.318149805069,1,0
52,0.7,0.3,BB,0,right,0.34762597084,blue,1.0288579464,0,0
53,0.7,0.3,AA,1,right,0.388094902039,pink,0.532785892487,1,0
54,0.7,0.3,BB,0,right,0.439352035522,blue,0.229830026627,0,0
55,0.7,0.3,AB,1,left,0.29071688652,pink,0.070139169693,0,0
56,0.7,0.3,BA,1,left,0.18276309967,pink,0.48687505722,1,0
57,0.7,0.3,AA,1,right,0.256394147873,pink,0.518500089645,1,0
58,0.7,0.3,AB,1,left,1.94315910339,pink,0.424688816071,0,0
59,0.7,0.3,AA,1,right,0.267843961716,pink,0.400397062302,0,0
60,0.7,0.3,AA,1,right,1.6652431488,pink,0.390583992004,1,0
61,0.7,0.3,AA,0,right,0.33273601532,blue,0.358616113663,1,0
62,0.7,0.3,AA,1,right,0.538530826569,pink,0.58121919632,1,0
63,0.7,0.3,AA,1,right,1.19733500481,pink,0.444684028625,0,0
64,0.7,0.3,AB,1,left,0.425812005997,pink,0.584514141083,1,0
65,0.7,0.3,BA,1,left,1.63697814941,pink,0.42677116394,0,0
66,0.7,0.3,AA,0,right,0.43746304512,blue,0.794801950455,0,0
67,0.7,0.3,AB,1,left,0.35549902916,pink,0.461373806,0,0
68,0.7,0.3,AB,1,left,0.972864866257,pink,0.557326793671,1,0
69,0.7,0.3,BB,0,right,1.59641695023,blue,0.764280080795,0,0
70,0.7,0.3,BB,1,right,1.31727814674,pink,0.486867904663,1,0
71,0.7,0.3,BA,1,left,0.412703037262,pink,0.203028202057,1,0
72,0.7,0.3,AA,0,right,0.283797025681,blue,0.288028001785,0,0
73,0.7,0.3,BA,1,left,0.332541942596,pink,0.311092853546,1,0
74,0.7,0.3,BA,1,left,1.1216840744,pink,0.292530059814,0,0
75,0.7,0.3,BA,1,left,0.238186120987,pink,0.557471990585,1,0
76,0.7,0.3,AA,1,right,0.289813041687,pink,0.333740949631,1,0
77,0.7,0.3,BB,0,right,0.368434906006,blue,0.657773971558,0,0
78,0.7,0.3,AA,1,right,1.84279608727,pink,0.328541040421,1,0
79,0.7,0.3,AA,1,right,0.359147071838,pink,0.28951382637,1,0
80,0.7,0.3,BB,1,right,0.2546479702,pink,0.108032941818,1,0
81,0.7,0.3,AB,0,left,0.24869799614,blue,0.206403017044,0,0
82,0.7,0.3,BA,1,left,0.246672868729,pink,0.355787992477,1,0
83,0.7,0.3,BB,1,right,1.13365483284,pink,0.27247095108,1,0
84,0.7,0.3,BB,1,right,1.39405894279,pink,0.546034097672,1,0
85,0.7,0.3,AA,1,right,0.918663978577,pink,0.274734020233,1,0
86,0.7,0.3,AB,1,left,0.491249084473,pink,0.296013832092,0,0
87,0.7,0.3,AB,0,left,1.2969930172,blue,0.308408975601,1,0
88,0.7,0.3,BB,1,right,0.254997014999,pink,0.444956064224,1,0
89,0.7,0.3,AA,0,,,,,0,1
90,0.7,0.3,AB,1,left,0.472980976105,pink,0.3421189785,1,0
91,0.7,0.3,BA,1,left,0.245779037476,pink,0.378952980042,1,0
92,0.7,0.3,BA,1,left,0.136061906815,pink,0.378118038177,1,0
93,0.7,0.3,BB,1,right,0.221616029739,pink,0.2771692276,1,0
94,0.7,0.3,AA,1,right,0.411887168884,pink,0.323706865311,1,0
95,0.7,0.3,AA,1,right,0.249933958054,pink,0.174652099609,0,0
96,0.7,0.3,BB,0,right,0.80356502533,blue,0.579349994659,0,0
97,0.7,0.3,BB,1,right,0.476728916168,pink,0.48929810524,0,0
98,0.7,0.3,AA,0,right,0.278503894806,blue,0.251827001572,0,0
99,0.7,0.3,BA,1,left,0.279690027237,pink,0.243559837341,0,0
100,0.7,0.3,AA,1,right,0.263971805573,pink,0.340555906296,0,0
101,0.7,0.3,BB,1,right,1.17979693413,pink,0.476074934006,0,0
102,0.7,0.3,AB,1,right,1.42362308502,blue,0.710294961929,0,0
103,0.7,0.3,AA,1,right,0.561558961868,pink,0.363234996796,1,0
104,0.7,0.3,BA,0,left,0.338448047638,blue,0.219501972198,1,0
105,0.7,0.3,BA,1,left,0.46820306778,pink,0.431672811508,0,0
106,0.7,0.3,BB,1,left,0.36142206192,blue,0.426622867584,0,0
107,0.7,0.3,BA,1,left,1.82416200638,pink,0.430469989777,0,0
108,0.7,0.3,AB,1,left,0.34673500061,pink,0.332770109177,1,0
109,0.7,0.3,AB,1,left,1.20825791359,pink,0.415456056595,1,0
110,0.7,0.3,BB,1,right,1.5399107933,pink,0.286047935486,1,0
111,0.7,0.3,BB,1,right,0.486202001572,pink,0.362325906754,1,0
112,0.7,0.3,AB,1,left,0.301687955856,pink,0.321624994278,1,0
113,0.7,0.3,AA,1,right,1.71564292908,pink,0.319095134735,1,0
114,0.7,0.3,BB,0,right,0.273639917374,blue,0.647090196609,0,0
115,0.7,0.3,BB,1,right,0.315650939941,pink,0.398514986038,1,0
116,0.7,0.3,AB,1,left,0.403406858444,pink,0.402680873871,0,0
117,0.7,0.3,AB,1,left,0.279242992401,pink,0.418989896774,0,0
118,0.7,0.3,AB,1,left,0.350944042206,pink,0.392357826233,1,0
119,0.7,0.3,BA,0,left,1.02467489243,blue,0.480003118515,1,0
120,0.7,0.3,AA,1,right,1.44807696342,pink,0.453215122223,0,0
121,0.7,0.3,AB,1,right,1.08781218529,blue,0.50817990303,0,0
122,0.7,0.3,BA,0,left,0.272854089737,blue,0.477305173874,1,0
123,0.7,0.3,AA,1,left,0.419675111771,blue,0.378401994705,0,0
124,0.7,0.3,AA,1,right,0.294903039932,pink,0.313729047775,1,0
125,0.7,0.3,AA,1,right,0.296632051468,pink,0.428381919861,0,0
126,0.7,0.3,AA,1,right,1.12854003906,pink,0.49832201004,0,0
127,0.7,0.3,BA,1,left,1.65198993683,pink,0.329082012177,1,0
128,0.7,0.3,BA,0,left,0.803515911102,blue,0.514155864716,0,0
129,0.7,0.3,BB,1,right,0.426152944565,pink,0.36131310463,1,0
130,0.7,0.3,BA,1,left,1.39960384369,pink,0.406258821487,0,0
131,0.7,0.3,BA,1,left,0.421360969543,pink,0.268927097321,1,0
132,0.7,0.3,AA,1,right,1.89963793755,pink,0.614832162857,0,0
133,0.7,0.3,BA,0,left,0.338439941406,blue,0.813476085663,0,0
134,0.7,0.3,AB,0,left,0.204655885696,blue,0.451349973679,0,0
135,0.7,0.3,BB,1,right,1.15571212769,pink,0.348081111908,1,0
136,0.7,0.3,AA,0,right,1.26938414574,blue,0.304970979691,1,0
137,0.7,0.3,AA,0,right,0.298873186111,blue,0.366536140442,0,0
138,0.7,0.3,AA,1,right,1.0530731678,pink,0.378671169281,0,0
139,0.7,0.3,BB,1,right,0.478235006332,pink,0.306895971298,1,0
140,0.7,0.3,BA,1,left,0.0378670692444,pink,0.405539035797,1,0
141,0.7,0.3,AB,1,left,0.330519914627,pink,0.244220972061,1,0
142,0.7,0.3,BA,0,left,0.270030975342,blue,0.106592178345,0,0
143,0.7,0.3,BA,1,left,0.296003818512,pink,0.227046012878,1,0
144,0.7,0.3,AB,1,left,0.268079042435,pink,0.257352113724,0,0
145,0.7,0.3,AA,0,right,0.931277036667,blue,0.397946119308,0,0
146,0.7,0.3,AB,1,left,0.224750041962,pink,0.791347980499,0,0
147,0.7,0.3,BA,1,left,0.680541038513,pink,0.413549900055,0,0
148,0.7,0.3,BB,0,right,0.292004108429,blue,0.535284996033,0,0
149,0.7,0.3,BA,1,left,0.282476186752,pink,0.382539987564,1,0
150,0.7,0.3,AA,1,right,1.10563421249,pink,0.350011110306,1,0
151,0.7,0.3,BA,1,left,0.875702857971,pink,0.336569070816,0,0
152,0.7,0.3,BA,0,left,0.302092790604,blue,0.32133603096,0,0
153,0.7,0.3,AB,1,left,0.322992086411,pink,0.421683073044,1,0
154,0.7,0.3,AA,1,right,0.11853313446,pink,0.416193962097,1,0
155,0.7,0.3,AA,1,right,0.674966096878,pink,0.440627098083,1,0
156,0.7,0.3,AB,1,left,1.20632696152,pink,0.326231002808,0,0
157,0.7,0.3,BB,1,right,0.269156932831,pink,0.248926877975,1,0
158,0.7,0.3,AA,1,right,0.268037080765,pink,0.768775939941,0,0
159,0.7,0.3,AA,0,right,0.399485111237,blue,0.855506896973,1,0
160,0.7,0.3,AB,0,left,0.313979148865,blue,0.717163085938,1,0
161,0.7,0.3,AB,0,right,1.593927145,pink,0.506205797195,1,0
162,0.7,0.3,BA,1,left,0.803531885147,pink,0.355708122253,1,0
163,0.7,0.3,BB,1,right,0.49015212059,pink,0.590893983841,1,0
164,0.7,0.3,BB,1,right,0.291478872299,pink,0.263329029083,1,0
165,0.7,0.3,BA,1,left,1.24845290184,pink,0.342851877213,1,0
166,0.7,0.3,BA,1,left,1.30271100998,pink,0.242013931274,0,0
167,0.7,0.3,BA,1,right,1.65392398834,blue,0.338881015778,1,0
168,0.7,0.3,AA,0,left,1.14042210579,pink,0.453433036804,1,0
169,0.7,0.3,AA,0,right,0.301356077194,blue,0.30539894104,0,0
170,0.7,0.3,BA,1,left,1.71714806557,pink,0.328444004059,1,0
171,0.7,0.3,AA,1,right,0.525645971298,pink,0.633096933365,1,0
172,0.7,0.3,AA,1,right,1.03433203697,pink,0.28848195076,1,0
173,0.7,0.3,AA,1,left,1.80189108849,blue,0.337395191193,0,0
174,0.7,0.3,AB,1,left,0.740853071213,pink,0.303106069565,1,0
175,0.7,0.3,BA,1,left,0.319699048996,pink,0.338074922562,1,0
176,0.7,0.3,BA,1,left,0.212531089783,pink,0.187460899353,1,0
177,0.7,0.3,BB,1,right,0.289567947388,pink,0.238160133362,1,0
178,0.7,0.3,AA,1,right,0.23873591423,pink,0.244779825211,0,0
179,0.7,0.3,BA,1,left,1.10502004623,pink,0.20494890213,1,0
180,0.7,0.3,BB,1,right,1.79351496696,pink,0.264617919922,0,0
181,0.7,0.3,AA,1,right,0.695909976959,pink,0.259918928146,1,0
182,0.7,0.3,BA,1,left,0.285417795181,pink,0.15340089798,1,0
183,0.7,0.3,BB,1,right,1.24282407761,pink,0.24117398262,0,0
184,0.7,0.3,AB,0,left,0.225463151932,blue,0.183516025543,0,0
185,0.7,0.3,BA,1,left,0.431478023529,pink,0.181317090988,1,0
186,0.7,0.3,AB,1,left,0.455474853516,pink,0.340196847916,1,0
187,0.7,0.3,BB,0,right,0.329946041107,blue,0.924988985062,0,0
188,0.7,0.3,AB,1,left,0.300106048584,pink,0.183462142944,1,0
189,0.7,0.3,AB,0,left,1.09470105171,blue,0.371932029724,1,0
190,0.7,0.3,AB,1,right,0.315913915634,blue,0.326282024384,0,0
191,0.7,0.3,BA,1,left,0.353357076645,pink,0.275500059128,1,0
192,0.7,0.3,BA,0,left,0.280251979828,blue,0.451153993607,0,0
193,0.7,0.3,BB,1,right,0.251597881317,pink,0.33614897728,1,0
194,0.7,0.3,AA,1,right,0.283318996429,pink,0.294404983521,1,0
195,0.7,0.3,AA,0,right,0.322988986969,blue,0.49428486824,0,0
196,0.7,0.3,BA,0,left,1.27116799355,blue,0.259797096252,0,0
197,0.7,0.3,AB,1,left,0.398335933685,pink,0.293567895889,1,0
198,0.7,0.3,AA,1,right,0.347085952759,pink,0.267351150513,0,0
199,0.7,0.3,AA,1,right,1.27785897255,pink,0.227191209793,1,0
200,0.7,0.3,AA,1,right,0.499919176102,pink,0.142465114594,0,0
201,0.7,0.3,AA,1,right,0.294373035431,pink,0.257579803467,0,0
202,0.7,0.3,AB,0,left,0.274703025818,blue,0.448028087616,1,0
203,0.7,0.3,AB,1,left,0.49474811554,pink,0.418948888779,1,0
204,0.7,0.3,AB,1,left,0.254368066788,pink,0.563519001007,0,0
205,0.7,0.3,BB,1,right,0.251623153687,pink,0.248438119888,0,0
206,0.7,0.3,BA,1,right,0.365601062775,blue,0.270410060883,0,0
207,0.7,0.3,AB,1,left,0.279123067856,pink,0.218358039856,1,0
208,0.7,0.3,BB,0,right,0.255460977554,blue,0.149302959442,0,0
209,0.7,0.3,AA,1,right,0.310163021088,pink,0.194332838058,0,0
210,0.7,0.3,AB,1,left,1.50622797012,pink,0.188694953918,1,0
211,0.7,0.3,AA,1,right,0.433098077774,pink,0.375353097916,1,0
212,0.7,0.3,BB,1,right,0.985933065414,pink,0.130017995834,1,0
213,0.7,0.3,AB,1,left,0.253278017044,pink,0.0834491252899,0,0
214,0.7,0.3,BB,1,right,1.32403707504,pink,0.446725845337,0,0
215,0.7,0.3,BB,0,right,0.263617992401,blue,0.163443088531,0,0
216,0.7,0.3,AB,0,left,0.310470104218,blue,0.473886013031,0,0
217,0.7,0.3,BB,1,right,0.242712974548,pink,0.160696029663,0,0
218,0.7,0.3,BB,0,right,0.285218000412,blue,0.0417380332947,0,0
219,0.7,0.3,AB,1,left,0.208593130112,pink,0.111661195755,1,0
220,0.7,0.3,BB,1,right,0.172638177872,pink,0.125948905945,0,0
221,0.7,0.3,BA,1,right,1.07144498825,blue,0.179777145386,0,0
222,0.7,0.3,AB,1,left,0.283483982086,pink,0.214584827423,0,0
223,0.7,0.3,AB,1,left,1.67978096008,pink,0.2199010849,0,0
224,0.7,0.3,AB,1,left,1.07814788818,pink,0.211531877518,1,0
225,0.7,0.3,AB,1,left,0.262454986572,pink,0.210968971252,1,0
226,0.7,0.3,BB,1,right,0.872711896896,pink,0.54287981987,1,0
227,0.7,0.3,BA,1,left,0.274386882782,pink,0.20694899559,1,0
228,0.7,0.3,AA,1,right,0.183209896088,pink,0.119053125381,1,0
229,0.7,0.3,BB,1,right,0.778511047363,pink,0.0593440532684,0,0
230,0.7,0.3,BA,0,left,1.02309012413,blue,0.22936296463,1,0
231,0.7,0.3,BB,1,right,0.386290073395,pink,0.306239843369,1,0
232,0.7,0.3,AB,0,left,1.09081196785,blue,0.262740135193,0,0
233,0.7,0.3,BB,1,right,0.489794969559,pink,0.645731925964,1,0
234,0.7,0.3,AB,0,left,0.3121778965,blue,0.203366994858,0,0
235,0.7,0.3,AB,1,left,0.998183965683,pink,0.389865159988,1,0
236,0.7,0.3,AA,1,right,0.596549034119,pink,0.41107583046,1,0
237,0.7,0.3,BA,1,left,1.25087285042,pink,0.216178178787,1,0
238,0.7,0.3,BA,0,left,1.14488601685,blue,0.242782115936,1,0
239,0.7,0.3,AA,1,right,0.261474132538,pink,0.258495807648,1,0
240,0.7,0.3,BA,1,left,0.45530295372,pink,0.19641494751,1,0
241,0.7,0.3,BA,0,left,1.014731884,blue,0.206034183502,1,0
242,0.7,0.3,AA,1,right,0.36440205574,pink,0.18092083931,1,0
243,0.7,0.3,BA,1,left,0.932057857513,pink,0.238104104996,1,0
244,0.7,0.3,BB,1,right,0.330156803131,pink,0.108065843582,1,0
245,0.7,0.3,BB,1,right,0.934410810471,pink,0.136027097702,1,0
246,0.7,0.3,AA,1,right,0.430737018585,pink,0.172740936279,1,0
247,0.7,0.3,AB,1,left,0.752063989639,pink,0.153251886368,1,0
248,0.7,0.3,AB,1,left,0.0556209087372,pink,0.332710981369,1,0
249,0.7,0.3,BB,1,right,0.229326963425,pink,0.195148944855,1,0
250,0.7,0.3,BA,0,left,1.10200881958,blue,0.24925994873,0,0
251,0.7,0.3,BA,1,left,1.28302788734,pink,0.158873081207,1,0
252,0.7,0.3,BA,1,left,0.254652023315,pink,0.0919580459595,0,0
