trial,reward_prob_pink,reward_prob_blue,init_state,common,choice,rt1,final_state,rt2,reward,slow
1,0.7,0.3,AB,1,,,,,0,1
2,0.7,0.3,AB,1,right,0.370491027832,blue,3.2592048645,0,0
3,0.7,0.3,AA,0,right,0.341904878616,blue,5.44757294655,0,0
4,0.7,0.3,BB,1,right,0.354490995407,pink,1.0679500103,1,0
5,0.7,0.3,BA,1,left,0.318859815598,pink,1.06556987762,1,0
6,0.7,0.3,AA,1,right,0.323532104492,pink,0.877818107605,1,0
7,0.7,0.3,BA,1,left,0.26522898674,pink,0.708815097809,1,0
8,0.7,0.3,AB,1,left,0.294049978256,pink,1.7949450016,1,0
9,0.7,0.3,AA,1,right,0.28764295578,pink,0.524307966232,0,0
10,0.7,0.3,BA,0,left,0.308115005493,blue,2.72017288208,0,0
11,0.7,0.3,BA,1,left,0.407460927963,pink,0.863770008087,1,0
12,0.7,0.3,BB,1,right,0.321380138397,pink,0.636240005493,1,0
13,0.7,0.3,BA,1,left,0.367746829987,pink,0.728261232376,1,0
14,0.7,0.3,BA,0,left,0.30467414856,blue,1.50804209709,0,0
15,0.7,0.3,BA,1,left,0.365067958832,pink,2.55032014847,0,0
16,0.7,0.3,AA,0,right,0.284210920334,blue,1.65670514107,1,0
17,0.7,0.3,BB,0,left,1.22775602341,pink,1.56313109398,1,0
18,0.7,0.3,AA,1,right,0.401706933975,pink,0.92816901207,0,0
19,0.7,0.3,BA,1,right,1.50446796417,blue,3.39611101151,0,0
20,0.7,0.3,AB,1,left,0.264986038208,pink,0.437978029251,1,0
21,0.7,0.3,AA,0,right,0.329199075699,blue,0.787571907043,0,0
22,0.7,0.3,BB,1,right,0.256779909134,pink,0.478451967239,1,0
23,0.7,0.3,BB,0,right,0.271872997284,blue,0.572426080704,1,0
24,0.7,0.3,BA,1,left,0.666690826416,pink,0.415455818176,1,0
25,0.7,0.3,BB,0,right,0.283887863159,blue,0.640357017517,0,0
26,0.7,0.3,AA,1,right,0.323999881744,pink,0.462244033813,1,0
27,0.7,0.3,BA,1,left,0.329227924347,pink,0.355955123901,1,0
28,0.7,0.3,BA,1,left,0.234947919846,pink,0.384305953979,1,0
29,0.7,0.3,BB,1,right,0.333957910538,pink,0.344307184219,0,0
30,0.7,0.3,BB,0,right,0.335860967636,blue,0.866467952728,0,0
31,0.7,0.3,BB,1,right,0.397211790085,pink,0.572082996368,1,0
32,0.7,0.3,BA,0,left,0.593846082687,blue,1.17083096504,0,0
33,0.7,0.3,BA,1,left,0.417143106461,pink,0.43890619278,1,0
34,0.7,0.3,BA,0,left,0.346657037735,blue,0.476657152176,0,0
35,0.7,0.3,BA,1,left,0.32633805275,pink,0.464886903763,0,0
36,0.7,0.3,AA,1,right,0.339344978333,pink,0.590166091919,0,0
37,0.7,0.3,AA,0,left,0.315101146698,pink,0.709589004517,1,0
38,0.7,0.3,BA,1,left,0.414793968201,pink,0.381181955338,1,0
39,0.7,0.3,AA,1,right,0.379523038864,pink,0.451827049255,1,0
40,0.7,0.3,AB,1,left,0.318589925766,pink,0.328990221024,1,0
41,0.7,0.3,BB,1,right,0.305421113968,pink,0.212516069412,0,0
42,0.7,0.3,BA,1,left,0.313569068909,pink,0.20454287529,1,0
43,0.7,0.3,BB,0,right,0.313520908356,blue,0.259922027588,0,0
44,0.7,0.3,BB,1,right,0.375925064087,pink,0.319828987122,0,0
45,0.7,0.3,AB,1,left,0.864248037338,pink,0.46956205368,1,0
46,0.7,0.3,BB,1,right,0.472301006317,pink,0.364784002304,0,0
47,0.7,0.3,AB,1,left,0.49836397171,pink,0.294294834137,1,0
48,0.7,0.3,BA,1,left,0.343461990356,pink,0.298202037811,1,0
49,0.7,0.3,AA,1,right,0.338557004929,pink,0.3011469841,1,0
50,0.7,0.3,BB,1,left,0.493861913681,blue,0.913305997849,1,0
51,0.7,0.3,AA,1,right,0.441890001297,pink,0.352581977844,1,0
52,0.7,0.3,BB,1,right,0.717813014984,pink,0.287390947342,1,0
53,0.7,0.3,AB,1,left,0.377113103867,pink,0.273905992508,1,0
54,0.7,0.3,BB,1,right,0.404464006424,pink,0.299477100372,1,0
55,0.7,0.3,BB,1,right,0.324667930603,pink,0.303166151047,0,0
56,0.7,0.3,BB,1,right,0.384907007217,pink,0.544459819794,1,0
57,0.7,0.3,BA,1,left,0.392106056213,pink,0.440734148026,0,0
58,0.7,0.3,BB,0,right,0.396718025208,blue,0.883059024811,1,0
59,0.7,0.3,AA,0,left,0.340796947479,pink,0.615656137466,1,0
60,0.7,0.3,AB,1,right,0.315143108368,blue,0.687834978104,1,0
61,0.7,0.3,AB,1,right,0.312717914581,blue,0.570784091949,0,0
62,0.7,0.3,BA,1,left,0.304672002792,pink,0.332623004913,1,0
63,0.7,0.3,AA,1,right,0.348448038101,pink,0.309654951096,1,0
64,0.7,0.3,BB,1,,,,,0,1
65,0.7,0.3,BA,0,left,0.323063135147,blue,0.518928050995,0,0
66,0.7,0.3,BA,1,left,0.254280090332,pink,0.299451112747,1,0
67,0.7,0.3,AB,1,left,0.300449848175,pink,0.216619968414,1,0
68,0.7,0.3,AA,1,right,0.324526071548,pink,0.223899841309,1,0
69,0.7,0.3,BA,1,left,0.3707280159,pink,0.235872983932,0,0
70,0.7,0.3,BB,0,right,1.12770581245,blue,0.882263898849,0,0
71,0.7,0.3,AA,1,right,0.26802611351,pink,0.265179872513,1,0
72,0.7,0.3,BA,1,left,0.339277029037,pink,0.174097061157,1,0
73,0.7,0.3,AB,1,left,0.395539999008,pink,0.211297988892,1,0
74,0.7,0.3,AB,1,left,0.408598899841,pink,0.247709035873,1,0
75,0.7,0.3,BA,1,left,0.667037963867,pink,0.495707035065,1,0
76,0.7,0.3,BA,0,left,0.329670906067,blue,0.203166007996,0,0
77,0.7,0.3,AB,1,left,0.48037314415,pink,0.413041114807,1,0
78,0.7,0.3,BB,0,right,0.417249917984,blue,0.671507120132,0,0
79,0.7,0.3,BA,0,left,0.345785140991,blue,0.187042951584,1,0
80,0.7,0.3,AB,1,left,0.32160615921,pink,0.29225897789,0,0
81,0.7,0.3,AB,1,right,0.317272186279,blue,0.384292840958,0,0
82,0.7,0.3,BA,1,left,0.301769971848,pink,0.321577072144,1,0
83,0.7,0.3,BB,1,right,0.433361768723,pink,0.320196866989,0,0
84,0.7,0.3,BB,1,right,0.367104053497,pink,0.512422800064,0,0
85,0.7,0.3,BA,0,right,0.305497169495,pink,0.516831159592,1,0
86,0.7,0.3,AB,1,left,0.334230899811,pink,0.423961162567,1,0
87,0.7,0.3,BA,1,left,0.355807065964,pink,0.285877227783,1,0
88,0.7,0.3,BB,0,right,0.334769964218,blue,0.232653141022,1,0
89,0.7,0.3,BA,1,left,0.700548887253,pink,0.200299024582,1,0
90,0.7,0.3,AB,1,left,0.293442964554,pink,0.128747940063,1,0
91,0.7,0.3,BB,1,right,0.450104951859,pink,0.102443933487,1,0
92,0.7,0.3,AB,1,left,0.415609121323,pink,0.118964910507,1,0
93,0.7,0.3,AA,1,right,0.358085155487,pink,0.160750150681,0,0
94,0.7,0.3,BB,1,right,0.463068008423,pink,0.283507108688,1,0
95,0.7,0.3,BA,1,left,0.358274936676,pink,0.166871070862,1,0
96,0.7,0.3,AB,1,left,0.348601102829,pink,0.21454000473,1,0
97,0.7,0.3,AB,1,left,0.42694401741,pink,0.210458993912,1,0
98,0.7,0.3,AB,0,left,0.374606847763,blue,0.184125900269,0,0
99,0.7,0.3,AA,1,right,0.372359991074,pink,0.350522041321,0,0
100,0.7,0.3,AA,1,right,0.324728012085,pink,0.288059949875,0,0
101,0.7,0.3,AB,0,left,0.321079015732,blue,0.571704149246,1,0
102,0.7,0.3,BB,1,left,0.330857038498,blue,0.284806966782,0,0
103,0.7,0.3,AA,1,right,0.421898841858,pink,0.883964061737,1,0
104,0.7,0.3,AB,1,left,0.357774019241,pink,0.295779943466,1,0
105,0.7,0.3,AA,1,right,0.376128196716,pink,0.377197027206,0,0
106,0.7,0.3,AB,1,left,0.456218004227,pink,0.308434009552,0,0
107,0.7,0.3,AB,1,right,0.725395917892,blue,0.313030958176,1,0
108,0.7,0.3,AA,1,left,0.312860012054,blue,0.340049982071,0,0
109,0.7,0.3,BB,1,right,0.386924028397,pink,0.29168510437,1,0
110,0.7,0.3,BA,1,left,0.292801856995,pink,0.353368997574,1,0
111,0.7,0.3,BA,0,left,0.360316038132,blue,0.281693935394,0,0
112,0.7,0.3,AA,1,right,0.40278506279,pink,0.34699511528,1,0
113,0.7,0.3,AA,1,right,0.480385065079,pink,0.373152017593,1,0
114,0.7,0.3,BA,1,left,0.332066059113,pink,0.326314210892,1,0
115,0.7,0.3,BB,1,right,0.341847896576,pink,0.320679187775,1,0
116,0.7,0.3,BA,0,left,0.360238790512,blue,0.658223152161,0,0
117,0.7,0.3,BA,1,left,0.34871006012,pink,0.477845191956,1,0
118,0.7,0.3,AA,1,right,0.424322128296,pink,0.303795099258,0,0
119,0.7,0.3,AA,0,right,0.480087041855,blue,0.563936948776,0,0
120,0.7,0.3,AB,0,left,0.355451822281,blue,0.372415065765,1,0
121,0.7,0.3,AA,1,right,0.346739053726,pink,0.315916061401,1,0
122,0.7,0.3,BA,1,left,0.70010304451,pink,0.711287975311,0,0
123,0.7,0.3,BB,1,right,0.465157985687,pink,0.29344701767,0,0
124,0.7,0.3,AA,1,left,1.23072481155,blue,0.732558012009,0,0
125,0.7,0.3,AB,1,left,0.32434296608,pink,0.279537916183,1,0
126,0.7,0.3,AA,1,right,0.344205856323,pink,0.307512998581,0,0
127,0.7,0.3,AB,1,left,1.89990997314,pink,0.319891929626,1,0
128,0.7,0.3,BA,1,left,0.280308008194,pink,0.300318956375,0,0
129,0.7,0.3,BA,1,left,0.532747983932,pink,0.302747011185,1,0
130,0.7,0.3,BB,1,right,0.399769067764,pink,0.319102048874,1,0
131,0.7,0.3,BA,1,left,0.383428096771,pink,0.215396165848,1,0
132,0.7,0.3,BB,0,right,0.411092996597,blue,0.522929906845,0,0
133,0.7,0.3,BB,1,right,0.451537847519,pink,0.28896689415,1,0
134,0.7,0.3,BA,1,left,1.05845785141,pink,0.336319923401,1,0
135,0.7,0.3,AB,0,left,0.320156097412,blue,0.258883953094,1,0
136,0.7,0.3,AA,1,right,0.453423023224,pink,0.28246307373,0,0
137,0.7,0.3,BB,1,right,0.924329042435,pink,0.335871219635,1,0
138,0.7,0.3,AB,1,left,0.51865196228,pink,0.273347854614,1,0
139,0.7,0.3,BB,0,right,0.323780059814,blue,0.239400863647,1,0
140,0.7,0.3,AA,1,right,0.426258087158,pink,0.296916007996,1,0
141,0.7,0.3,BA,1,left,0.378003835678,pink,0.314821958542,0,0
142,0.7,0.3,BB,1,right,0.410856962204,pink,0.34628200531,0,0
143,0.7,0.3,BA,0,left,0.329357862473,blue,0.564008235931,0,0
144,0.7,0.3,BB,0,right,0.393656015396,blue,0.650488138199,1,0
145,0.7,0.3,AB,1,left,0.317162036896,pink,0.359303951263,1,0
146,0.7,0.3,BB,1,right,0.382488012314,pink,0.383373975754,1,0
147,0.7,0.3,AB,1,left,0.324199914932,pink,0.51086306572,0,0
148,0.7,0.3,AA,1,right,0.352250099182,pink,0.321223020554,1,0
149,0.7,0.3,AB,0,left,0.577955961227,blue,0.954314947128,0,0
150,0.7,0.3,BB,1,right,0.361426115036,pink,0.363503932953,1,0
151,0.7,0.3,AB,1,left,0.385090112686,pink,0.32892203331,0,0
152,0.7,0.3,BB,1,right,0.36136507988,pink,0.339406967163,1,0
153,0.7,0.3,AB,0,left,0.391487121582,blue,1.2873980999,0,0
154,0.7,0.3,AB,1,left,0.305027008057,pink,0.27627491951,1,0
155,0.7,0.3,AB,1,left,0.630877017975,pink,3.11759209633,1,0
156,0.7,0.3,BA,1,left,0.309844017029,pink,0.616286993027,1,0
157,0.7,0.3,AB,1,left,0.341033935547,pink,0.375600099564,0,0
158,0.7,0.3,AA,1,right,0.550223112106,pink,4.01447105408,1,0
159,0.7,0.3,BB,1,right,0.634762048721,pink,0.400643825531,1,0
160,0.7,0.3,BA,1,left,0.261768817902,pink,0.283013105392,1,0
161,0.7,0.3,AA,1,left,0.477048873901,blue,0.609485149384,1,0
162,0.7,0.3,BB,1,right,0.758661031723,pink,11.9995191097,1,0
163,0.7,0.3,BA,1,left,0.636393785477,pink,1.14697980881,1,0
164,0.7,0.3,AB,1,left,1.46555185318,pink,0.542098999023,1,0
165,0.7,0.3,BA,1,left,0.589791059494,pink,0.430364847183,1,0
166,0.7,0.3,AA,0,right,0.273603200912,blue,0.533914804459,0,0
167,0.7,0.3,AB,1,left,0.573965072632,pink,0.246578931808,1,0
168,0.7,0.3,BA,1,left,1.94555401802,pink,0.394956111908,0,0
169,0.7,0.3,BB,1,right,0.383959054947,pink,0.185086011887,1,0
170,0.7,0.3,BA,1,left,0.286254882812,pink,0.162349939346,1,0
171,0.7,0.3,AB,0,,,,,0,1
172,0.7,0.3,BA,1,left,0.318419933319,pink,0.209401845932,1,0
173,0.7,0.3,BB,1,right,0.302114963531,pink,0.218393087387,1,0
174,0.7,0.3,AA,1,right,0.421768188477,pink,0.245198011398,1,0
175,0.7,0.3,AA,1,right,0.392343044281,pink,0.216350078583,0,0
176,0.7,0.3,BB,1,right,1.18865799904,pink,0.172681093216,0,0
177,0.7,0.3,BA,0,left,0.499173879623,blue,0.230347156525,1,0
178,0.7,0.3,BA,1,left,0.306360006332,pink,0.230059862137,1,0
179,0.7,0.3,AA,1,right,0.313308954239,pink,0.276692867279,1,0
180,0.7,0.3,BA,1,left,1.04707598686,pink,0.372453927994,1,0
181,0.7,0.3,AA,1,right,0.370276927948,pink,0.33847784996,1,0
182,0.7,0.3,AA,0,right,0.642334938049,blue,0.488304138184,0,0
183,0.7,0.3,BB,1,right,1.86607909203,pink,0.303349971771,1,0
184,0.7,0.3,BA,1,left,0.551162958145,pink,0.321770906448,1,0
185,0.7,0.3,BA,1,left,0.641308069229,pink,0.43202996254,0,0
186,0.7,0.3,BA,1,left,0.563124895096,pink,1.18820786476,1,0
187,0.7,0.3,AB,0,left,0.953536987305,blue,0.787697076797,1,0
188,0.7,0.3,BB,1,right,0.576421976089,pink,0.713922023773,0,0
189,0.7,0.3,BB,0,right,1.12939810753,blue,2.04382395744,0,0
190,0.7,0.3,BB,1,right,0.647201061249,pink,0.244369029999,1,0
191,0.7,0.3,BB,1,left,0.560698032379,blue,0.25733590126,1,0
192,0.7,0.3,BB,1,right,1.38056087494,pink,0.220820903778,1,0
193,0.7,0.3,AA,1,right,0.416869878769,pink,0.191460132599,1,0
194,0.7,0.3,AB,1,left,0.325481891632,pink,0.232973098755,1,0
195,0.7,0.3,BA,1,left,0.89985203743,pink,0.222810983658,1,0
196,0.7,0.3,AB,1,left,0.451521158218,pink,0.152698040009,1,0
197,0.7,0.3,AA,1,right,0.424238920212,pink,0.103275060654,1,0
198,0.7,0.3,AB,1,left,0.295672178268,pink,0.139243841171,0,0
199,0.7,0.3,BB,0,right,0.348011016846,blue,0.164516925812,0,0
200,0.7,0.3,AA,1,right,0.378355979919,pink,0.243766784668,0,0
201,0.7,0.3,BA,1,left,0.398828029633,pink,0.334743022919,1,0
202,0.7,0.3,AB,1,left,0.334949016571,pink,0.280715942383,0,0
203,0.7,0.3,BA,1,left,0.313613176346,pink,0.315997123718,1,0
204,0.7,0.3,BB,1,left,0.501603841782,blue,0.360786914825,0,0
205,0.7,0.3,BA,1,left,0.255049943924,pink,0.204231977463,0,0
206,0.7,0.3,BA,1,left,0.281415939331,pink,0.270002126694,0,0
207,0.7,0.3,BB,0,right,0.336834192276,blue,0.265862941742,0,0
208,0.7,0.3,AB,1,left,0.316164016724,pink,0.294690132141,1,0
209,0.7,0.3,AB,1,left,0.312582015991,pink,0.147104024887,0,0
210,0.7,0.3,AA,1,right,0.778367996216,pink,0.266808986664,0,0
211,0.7,0.3,AA,1,left,1.06934905052,blue,0.274525880814,0,0
212,0.7,0.3,BA,0,left,1.72441101074,blue,0.638350963593,0,0
213,0.7,0.3,BA,0,left,0.362756967545,blue,0.636109113693,0,0
214,0.7,0.3,AA,1,right,0.335128068924,pink,0.321797847748,0,0
215,0.7,0.3,BA,1,left,0.298660039902,pink,0.325631141663,1,0
216,0.7,0.3,AB,0,left,0.669286966324,blue,0.674598932266,0,0
217,0.7,0.3,BB,0,right,0.292356014252,blue,0.720270872116,1,0
218,0.7,0.3,BA,1,left,0.344708919525,pink,0.48251080513,0,0
219,0.7,0.3,BA,1,left,0.316200971603,pink,0.366902112961,0,0
220,0.7,0.3,AB,1,right,0.349472999573,blue,0.327057123184,0,0
221,0.7,0.3,AA,1,right,0.326588869095,pink,0.30674290657,1,0
222,0.7,0.3,AA,1,right,0.36291885376,pink,0.292140960693,1,0
223,0.7,0.3,BB,1,right,0.293395996094,pink,0.425116062164,1,0
224,0.7,0.3,AB,1,left,0.301692962646,pink,0.345363855362,1,0
225,0.7,0.3,AA,1,left,0.408828020096,blue,0.744478940964,1,0
226,0.7,0.3,AB,1,left,0.279860973358,pink,0.307734012604,0,0
227,0.7,0.3,AA,1,right,0.348253011703,pink,0.311132907867,0,0
228,0.7,0.3,AA,0,right,0.30318903923,blue,0.674767017365,0,0
229,0.7,0.3,AA,1,right,0.309001922607,pink,0.304178953171,1,0
230,0.7,0.3,BA,0,left,0.337817907333,blue,0.452169179916,0,0
231,0.7,0.3,AB,1,left,0.254428863525,pink,0.324434041977,1,0
232,0.7,0.3,AB,0,left,0.316082000732,blue,0.919469118118,1,0
233,0.7,0.3,AA,1,right,0.319006919861,pink,0.417647123337,1,0
234,0.7,0.3,AA,1,right,0.294148921967,pink,0.330976963043,1,0
235,0.7,0.3,BA,1,left,0.31373500824,pink,0.285557031631,1,0
236,0.7,0.3,BB,1,right,0.350392103195,pink,0.367555856705,1,0
237,0.7,0.3,AA,1,right,0.326133012772,pink,0.288805961609,1,0
238,0.7,0.3,AB,0,left,1.00253820419,blue,0.258538007736,0,0
239,0.7,0.3,BA,1,left,0.308952093124,pink,0.232247114182,1,0
240,0.7,0.3,AA,1,right,0.347801923752,pink,0.269227981567,0,0
241,0.7,0.3,AB,1,left,0.287498950958,pink,0.315764904022,1,0
242,0.7,0.3,BB,1,right,0.316521883011,pink,0.238476037979,0,0
243,0.7,0.3,AB,0,left,0.28355717659,blue,0.79816198349,0,0
244,0.7,0.3,AA,1,right,0.435584068298,pink,0.314192056656,1,0
245,0.7,0.3,AB,1,left,0.753942966461,pink,0.283914089203,0,0
246,0.7,0.3,AA,1,right,0.588875055313,pink,0.613007068634,0,0
247,0.7,0.3,AB,0,left,0.537219047546,blue,0.347128152847,1,0
248,0.7,0.3,BA,1,left,0.266381978989,pink,0.278883934021,1,0
249,0.7,0.3,AB,1,left,0.321221113205,pink,0.220947027206,0,0
250,0.7,0.3,AB,1,left,0.272345066071,pink,0.26181101799,0,0
251,0.7,0.3,BB,1,right,0.294812917709,pink,0.307527065277,1,0
252,0.7,0.3,BB,0,right,0.3325548172,blue,0.287316799164,0,0
253,0.7,0.3,BA,1,left,0.328356981277,pink,0.346909999847,0,0
