trial,reward_prob_pink,reward_prob_blue,init_state,common,choice,rt1,final_state,rt2,reward,slow
1,0.3,0.7,AA,1,left,1.46427583694,blue,2.39557695389,0,0
2,0.3,0.7,BA,0,right,0.482254981995,pink,0.917851924896,0,0
3,0.3,0.7,BA,1,left,0.728875160217,pink,1.2672970295,1,0
4,0.3,0.7,BA,1,left,0.38299703598,pink,0.838688135147,0,0
5,0.3,0.7,AB,1,right,0.652981042862,blue,2.04300904274,1,0
6,0.3,0.7,AB,1,left,0.831393957138,pink,0.956562042236,0,0
7,0.3,0.7,BB,1,right,1.55144405365,pink,0.838235855103,0,0
8,0.3,0.7,AA,0,left,0.50882101059,pink,1.10403513908,1,0
9,0.3,0.7,AB,1,left,1.33928394318,pink,1.13173007965,1,0
10,0.3,0.7,BB,1,right,0.318852186203,pink,0.785835981369,0,0
11,0.3,0.7,AB,1,left,0.489153146744,pink,0.596863985062,0,0
12,0.3,0.7,BA,1,right,0.325896024704,blue,1.3280608654,0,0
13,0.3,0.7,AA,0,,,,,0,1
14,0.3,0.7,AA,0,right,0.386518001556,blue,1.10608291626,1,0
15,0.3,0.7,AA,1,right,0.38866519928,pink,1.74869608879,0,0
16,0.3,0.7,AB,1,right,0.645262956619,blue,0.945799827576,1,0
17,0.3,0.7,BB,1,left,0.347759008408,blue,0.820647001266,0,0
18,0.3,0.7,AA,1,right,0.43584895134,pink,0.81746506691,0,0
19,0.3,0.7,AB,1,right,0.904713153839,blue,0.635267972946,1,0
20,0.3,0.7,AA,1,left,0.2818608284,blue,0.421318054199,0,0
21,0.3,0.7,AB,1,right,1.01294708252,blue,0.426668167114,1,0
22,0.3,0.7,AA,0,left,0.323327064514,pink,0.373668193817,1,0
23,0.3,0.7,AA,1,right,0.662201881409,pink,0.394069910049,0,0
24,0.3,0.7,AB,1,right,0.380134105682,blue,0.227769136429,1,0
25,0.3,0.7,BA,1,,,,,0,1
26,0.3,0.7,AA,1,right,0.449826955795,pink,0.486707925797,0,0
27,0.3,0.7,AA,1,left,0.435408115387,blue,0.297075033188,1,0
28,0.3,0.7,BA,1,right,0.693389177322,blue,0.656837940216,0,0
29,0.3,0.7,AA,1,left,0.503639936447,blue,0.370397090912,1,0
30,0.3,0.7,AB,0,left,0.339885950089,blue,0.213619947433,1,0
31,0.3,0.7,BA,0,left,0.309381961823,blue,0.264010190964,0,0
32,0.3,0.7,BA,1,right,0.325944185257,blue,0.223962068558,0,0
33,0.3,0.7,AA,1,left,0.966742038727,blue,0.391054868698,1,0
34,0.3,0.7,AB,1,right,0.295558214188,blue,0.242368936539,1,0
35,0.3,0.7,BA,0,right,0.289597034454,pink,0.293736934662,0,0
36,0.3,0.7,BA,1,right,0.29812502861,blue,0.205259084702,1,0
37,0.3,0.7,AA,1,right,1.02153396606,pink,0.203266859055,0,0
38,0.3,0.7,AB,1,right,0.292824029922,blue,0.143543958664,0,0
39,0.3,0.7,AA,1,left,0.490224838257,blue,0.285865068436,1,0
40,0.3,0.7,BA,1,left,0.282765865326,pink,0.214432001114,0,0
41,0.3,0.7,AA,1,left,0.735085010529,blue,0.271485805511,1,0
42,0.3,0.7,AA,1,left,0.357018232346,blue,0.262217998505,1,0
43,0.3,0.7,AB,1,right,0.308614969254,blue,0.246913909912,1,0
44,0.3,0.7,BA,1,left,1.41294193268,pink,0.19421005249,1,0
45,0.3,0.7,AA,1,right,0.603394031525,pink,0.187134027481,1,0
46,0.3,0.7,AA,1,left,0.25901389122,blue,0.177265167236,1,0
47,0.3,0.7,AA,1,right,0.265833854675,pink,0.198210954666,0,0
48,0.3,0.7,BA,1,left,0.278655052185,pink,0.202261924744,0,0
49,0.3,0.7,AB,1,left,1.5782828331,pink,0.210008144379,1,0
50,0.3,0.7,AA,0,right,0.338316917419,blue,0.195844888687,1,0
51,0.3,0.7,BB,1,right,0.73220705986,pink,0.190489053726,1,0
52,0.3,0.7,BA,1,left,0.246531009674,pink,0.419512987137,0,0
53,0.3,0.7,AA,1,right,0.763441085815,pink,0.30733704567,1,0
54,0.3,0.7,AA,1,left,0.40789103508,blue,0.207587957382,0,0
55,0.3,0.7,BA,1,right,0.415704965591,blue,0.156923055649,1,0
56,0.3,0.7,BB,0,left,1.04750800133,pink,0.515969991684,0,0
57,0.3,0.7,BA,1,right,0.319535017014,blue,0.257707118988,1,0
58,0.3,0.7,BA,1,right,0.464588880539,blue,0.252247095108,1,0
59,0.3,0.7,AB,1,right,1.2103331089,blue,0.53732085228,1,0
60,0.3,0.7,BA,1,right,0.307319164276,blue,0.390709161758,0,0
61,0.3,0.7,BB,1,left,0.335103034973,blue,0.584893941879,1,0
62,0.3,0.7,AA,1,left,0.345658063889,blue,0.218476057053,1,0
63,0.3,0.7,AA,1,left,0.450178861618,blue,0.271089076996,0,0
64,0.3,0.7,BB,1,right,0.548770904541,pink,0.237426042557,0,0
65,0.3,0.7,AA,1,right,0.381447076797,pink,0.252503156662,0,0
66,0.3,0.7,AA,0,left,0.858371019363,pink,0.199354171753,0,0
67,0.3,0.7,AA,1,left,0.352299213409,blue,0.161135196686,1,0
68,0.3,0.7,AB,0,right,0.610198974609,pink,0.434193849564,1,0
69,0.3,0.7,BB,1,right,1.24031090736,pink,0.54144692421,0,0
70,0.3,0.7,AA,1,left,0.999912023544,blue,0.926179885864,0,0
71,0.3,0.7,AA,1,left,0.345435142517,blue,0.362318992615,0,0
72,0.3,0.7,BB,0,right,0.459784984589,blue,0.377434968948,1,0
73,0.3,0.7,BA,1,right,0.610261917114,blue,0.48206615448,1,0
74,0.3,0.7,BB,0,left,0.462151050568,pink,0.257884979248,0,0
75,0.3,0.7,BB,1,right,0.448312997818,pink,0.261115074158,0,0
76,0.3,0.7,AB,0,right,0.379942893982,pink,0.243303775787,1,0
77,0.3,0.7,BB,1,left,0.80947303772,blue,0.257209062576,1,0
78,0.3,0.7,AA,1,right,0.871297121048,pink,0.274313926697,0,0
79,0.3,0.7,AB,1,right,0.272663831711,blue,0.260423183441,1,0
80,0.3,0.7,AB,1,left,0.562789916992,pink,0.194393157959,0,0
81,0.3,0.7,BB,1,right,0.331781864166,pink,0.197594881058,0,0
82,0.3,0.7,AA,1,right,0.421866893768,pink,0.243292093277,0,0
83,0.3,0.7,AA,0,right,0.369882822037,blue,0.330378055573,1,0
84,0.3,0.7,BA,1,left,0.341289997101,pink,0.230855226517,0,0
85,0.3,0.7,AA,1,left,0.33386516571,blue,0.247423887253,0,0
86,0.3,0.7,BA,1,right,0.429750919342,blue,0.251378059387,1,0
87,0.3,0.7,AA,1,right,0.889674901962,pink,0.228889942169,1,0
88,0.3,0.7,AB,1,right,0.380891084671,blue,0.140383005142,1,0
89,0.3,0.7,BA,1,right,0.303116798401,blue,0.210545063019,1,0
90,0.3,0.7,AA,1,right,0.338812828064,pink,0.347483873367,1,0
91,0.3,0.7,AA,0,left,0.341583013535,pink,0.255806922913,1,0
92,0.3,0.7,AA,1,right,0.373257875443,pink,0.446692943573,1,0
93,0.3,0.7,BA,1,right,0.315895795822,blue,0.359132051468,1,0
94,0.3,0.7,AB,0,right,0.296629905701,pink,0.339411020279,0,0
95,0.3,0.7,BA,0,right,0.374451875687,pink,0.51093506813,1,0
96,0.3,0.7,BB,0,left,0.354736089706,pink,0.340873003006,1,0
97,0.3,0.7,BB,1,right,0.447622060776,pink,0.347666978836,0,0
98,0.3,0.7,BA,1,right,1.06174015999,blue,0.362078905106,1,0
99,0.3,0.7,BA,1,right,0.916692972183,blue,0.51022195816,1,0
100,0.3,0.7,BB,0,left,0.529877185822,pink,0.347010850906,0,0
101,0.3,0.7,BA,1,right,0.509489059448,blue,0.632119178772,1,0
102,0.3,0.7,BB,1,right,0.398854017258,pink,0.333721160889,1,0
103,0.3,0.7,AA,1,right,1.10976099968,pink,0.304973125458,0,0
104,0.3,0.7,BB,1,left,0.293229103088,blue,0.225036144257,1,0
105,0.3,0.7,AB,1,right,0.559452056885,blue,0.256916999817,1,0
106,0.3,0.7,BB,1,left,0.30281996727,blue,0.273781061172,0,0
107,0.3,0.7,AA,0,left,0.591500997543,pink,0.286941051483,0,0
108,0.3,0.7,BB,1,left,0.547736167908,blue,0.220576047897,1,0
109,0.3,0.7,BA,0,left,0.524147987366,blue,0.374855995178,1,0
110,0.3,0.7,AB,1,right,0.464936971664,blue,0.261357069016,0,0
111,0.3,0.7,AA,1,left,0.874265193939,blue,0.238636016846,0,0
112,0.3,0.7,AA,1,right,0.41326880455,pink,0.379462957382,0,0
113,0.3,0.7,AA,1,right,0.316343069077,pink,0.294696092606,0,0
114,0.3,0.7,BA,1,left,0.386897087097,pink,0.306801080704,0,0
115,0.3,0.7,BB,1,left,0.855865955353,blue,0.659296989441,0,0
116,0.3,0.7,AB,0,right,0.314300775528,pink,0.219803094864,0,0
117,0.3,0.7,AB,1,left,0.251106023788,pink,0.289005994797,0,0
118,0.3,0.7,AB,1,left,0.341784954071,pink,0.279932022095,0,0
119,0.3,0.7,BA,1,left,0.355823040009,pink,0.253015995026,0,0
120,0.3,0.7,AA,1,left,0.307057142258,blue,0.246570110321,1,0
121,0.3,0.7,AB,1,left,1.0043990612,pink,1.31541800499,0,0
122,0.3,0.7,BB,1,left,0.414097070694,blue,0.212045907974,1,0
123,0.3,0.7,BA,0,right,0.396596908569,pink,0.514933109283,0,0
124,0.3,0.7,AB,1,right,0.40673494339,blue,0.621991872787,0,0
125,0.3,0.7,BA,1,right,0.565321922302,blue,0.333223104477,1,0
126,0.3,0.7,AB,1,right,0.304234027863,blue,0.298244953156,0,0
127,0.3,0.7,AA,1,left,1.22243618965,blue,0.332309007645,1,0
128,0.3,0.7,AB,1,,,,,0,1
129,0.3,0.7,BA,1,right,0.718375921249,blue,0.336580991745,1,0
130,0.3,0.7,BA,1,right,0.515262126923,blue,0.285664796829,1,0
131,0.3,0.7,AA,0,left,0.402495861053,pink,0.185239076614,0,0
132,0.3,0.7,BB,1,right,0.834469079971,pink,0.263851165771,0,0
133,0.3,0.7,AA,0,left,0.325257062912,pink,0.239895105362,1,0
134,0.3,0.7,AA,1,left,0.287485837936,blue,0.202172994614,0,0
135,0.3,0.7,BB,0,left,0.322797775269,pink,0.244843959808,1,0
136,0.3,0.7,AA,1,left,0.308342933655,blue,0.246435165405,1,0
137,0.3,0.7,AA,0,left,0.348383188248,pink,0.189373970032,0,0
138,0.3,0.7,BB,1,left,0.366374969482,blue,0.334806919098,1,0
139,0.3,0.7,AB,1,right,0.274564027786,blue,0.350997924805,1,0
140,0.3,0.7,BB,1,left,0.95321893692,blue,0.377753019333,1,0
141,0.3,0.7,AA,1,left,0.290786981583,blue,0.342679977417,1,0
142,0.3,0.7,AA,0,left,0.409944057465,pink,0.552804946899,0,0
143,0.3,0.7,AA,1,left,0.978876829147,blue,0.281847953796,0,0
144,0.3,0.7,AB,1,left,0.319519042969,pink,0.336918830872,1,0
145,0.3,0.7,AB,1,left,0.363761901855,pink,0.155900001526,0,0
146,0.3,0.7,BA,1,right,0.270318984985,blue,0.10678601265,1,0
147,0.3,0.7,AB,1,right,0.344192028046,blue,0.145123004913,1,0
148,0.3,0.7,BB,1,left,0.332239866257,blue,0.156764984131,1,0
149,0.3,0.7,AA,1,left,0.446917057037,blue,0.172032833099,1,0
150,0.3,0.7,AA,0,left,0.350955963135,pink,0.207775115967,0,0
151,0.3,0.7,BB,1,left,0.383001089096,blue,0.166696071625,0,0
152,0.3,0.7,BA,1,right,0.648334026337,blue,0.245094060898,1,0
153,0.3,0.7,AB,1,right,0.97936296463,blue,0.274996995926,1,0
154,0.3,0.7,BB,1,left,0.587991952896,blue,0.476361036301,0,0
155,0.3,0.7,AB,1,left,0.248777151108,pink,0.141741037369,0,0
156,0.3,0.7,BA,1,left,0.496979951859,pink,0.179805040359,1,0
157,0.3,0.7,BB,1,right,0.309672117233,pink,0.208863019943,0,0
158,0.3,0.7,AA,1,right,0.272044897079,pink,0.212601900101,0,0
159,0.3,0.7,BB,1,left,0.403887987137,blue,0.275069952011,0,0
160,0.3,0.7,AA,1,right,0.249437093735,pink,0.158961057663,0,0
161,0.3,0.7,AB,1,right,0.792917966843,blue,0.231489896774,0,0
162,0.3,0.7,BB,1,left,0.343008995056,blue,0.272980928421,1,0
163,0.3,0.7,BA,1,left,0.390688896179,pink,0.373336791992,0,0
164,0.3,0.7,AA,1,left,0.342643022537,blue,0.200970172882,0,0
165,0.3,0.7,AB,0,left,0.368685007095,blue,0.440917015076,0,0
166,0.3,0.7,AA,1,left,0.295647144318,blue,0.316041231155,1,0
167,0.3,0.7,AA,1,left,0.590614080429,blue,0.229867935181,1,0
168,0.3,0.7,BB,1,,,,,0,1
169,0.3,0.7,AA,1,left,0.46087884903,blue,0.121647119522,0,0
170,0.3,0.7,BA,0,right,0.285931110382,pink,0.168680906296,0,0
171,0.3,0.7,AA,1,left,0.387120008469,blue,0.234322786331,1,0
172,0.3,0.7,AB,1,left,0.353489160538,pink,0.266966104507,0,0
173,0.3,0.7,BB,1,right,0.36851811409,pink,0.23975610733,0,0
174,0.3,0.7,AB,1,right,1.14287614822,blue,0.559862852097,1,0
175,0.3,0.7,BB,1,right,0.794493913651,pink,0.385990858078,1,0
176,0.3,0.7,AB,1,right,0.626143932343,blue,0.39292216301,1,0
177,0.3,0.7,AA,0,right,1.39283704758,blue,0.591864824295,1,0
178,0.3,0.7,AB,1,right,0.248404026031,blue,0.221326828003,1,0
179,0.3,0.7,AB,0,right,0.253356933594,pink,0.186373949051,0,0
180,0.3,0.7,BB,1,left,0.499960899353,blue,0.286476135254,1,0
181,0.3,0.7,BA,1,left,0.395305871964,pink,0.289662122726,1,0
182,0.3,0.7,BB,0,left,0.57582116127,pink,0.431012868881,0,0
183,0.3,0.7,AA,1,left,0.92564201355,blue,0.391736030579,0,0
184,0.3,0.7,AB,1,right,0.177285909653,blue,0.217215061188,1,0
185,0.3,0.7,AB,1,right,0.400173902512,blue,0.176383972168,1,0
186,0.3,0.7,BB,1,left,0.281049013138,blue,0.204770803452,0,0
187,0.3,0.7,AB,1,right,0.285073041916,blue,0.184620857239,0,0
188,0.3,0.7,AB,0,right,0.0334630012512,pink,0.3758289814,0,0
189,0.3,0.7,AB,0,right,0.857805967331,pink,0.24582195282,0,0
190,0.3,0.7,AB,1,left,0.451932907104,pink,0.248975038528,0,0
191,0.3,0.7,AA,1,left,0.78328704834,blue,0.494710922241,0,0
192,0.3,0.7,AB,1,left,0.371968984604,pink,0.29257106781,0,0
193,0.3,0.7,BA,1,right,0.409578800201,blue,0.224148035049,0,0
194,0.3,0.7,AA,1,left,0.271095991135,blue,0.291532993317,1,0
195,0.3,0.7,BB,0,left,0.352417945862,pink,0.218466997147,1,0
196,0.3,0.7,BB,0,right,0.368803977966,blue,0.185672044754,1,0
197,0.3,0.7,BB,1,right,0.321997880936,pink,0.133465051651,1,0
198,0.3,0.7,BB,1,right,0.559625148773,pink,0.16928601265,0,0
199,0.3,0.7,BA,1,right,0.32209610939,blue,0.180522918701,0,0
200,0.3,0.7,BB,0,left,0.285181999207,pink,0.177149057388,1,0
201,0.3,0.7,AB,1,right,0.595104932785,blue,0.218897104263,0,0
202,0.3,0.7,BA,1,right,0.490304946899,blue,0.637660980225,1,0
203,0.3,0.7,BB,1,left,0.403350114822,blue,0.322265863419,1,0
204,0.3,0.7,AA,1,left,0.541954994202,blue,0.552132129669,1,0
205,0.3,0.7,AA,1,left,0.819570064545,blue,0.298161029816,1,0
206,0.3,0.7,BB,0,left,0.518825054169,pink,0.36878490448,0,0
207,0.3,0.7,AA,1,left,0.761379003525,blue,0.426170110703,1,0
208,0.3,0.7,BB,1,left,0.778637886047,blue,0.225836038589,1,0
209,0.3,0.7,BB,1,left,0.713130950928,blue,0.604104995728,1,0
210,0.3,0.7,BA,1,right,0.876178026199,blue,0.272022008896,1,0
211,0.3,0.7,BB,0,left,0.412599086761,pink,0.17900800705,0,0
212,0.3,0.7,AA,0,left,0.195616006851,pink,0.194991827011,0,0
213,0.3,0.7,AA,0,left,0.268351793289,pink,0.256969928741,1,0
214,0.3,0.7,AB,1,right,0.535131931305,blue,0.199871063232,1,0
215,0.3,0.7,BB,0,left,0.439773082733,pink,0.189683914185,1,0
216,0.3,0.7,AB,1,right,0.431382894516,blue,0.180302858353,1,0
217,0.3,0.7,BA,1,right,0.373042821884,blue,0.165533065796,1,0
218,0.3,0.7,AA,1,left,0.262896060944,blue,0.115305900574,1,0
219,0.3,0.7,AA,0,left,0.400115966797,pink,0.135065078735,1,0
220,0.3,0.7,BB,1,left,0.472695112228,blue,0.173715114594,1,0
221,0.3,0.7,BA,0,right,0.350843906403,pink,0.159945964813,0,0
222,0.3,0.7,AB,1,right,0.107281923294,blue,0.229939937592,1,0
223,0.3,0.7,AB,1,right,0.484145879745,blue,0.240877866745,1,0
224,0.3,0.7,AA,1,right,0.558755159378,pink,0.191963195801,0,0
225,0.3,0.7,AA,1,left,0.393892049789,blue,0.200813055038,1,0
226,0.3,0.7,BB,0,right,0.400755167007,blue,0.304566860199,1,0
227,0.3,0.7,BA,1,right,0.972326993942,blue,0.211493015289,1,0
228,0.3,0.7,BB,1,left,0.364258050919,blue,0.220489025116,1,0
229,0.3,0.7,BA,0,left,0.452311038971,blue,0.297007083893,0,0
230,0.3,0.7,BB,1,left,0.284193992615,blue,0.09605884552,1,0
231,0.3,0.7,AA,1,left,0.861560106277,blue,0.18595790863,1,0
232,0.3,0.7,BA,1,right,0.306678056717,blue,0.26119685173,0,0
233,0.3,0.7,AA,1,left,0.450570106506,blue,0.136569976807,0,0
234,0.3,0.7,AB,1,right,0.299164056778,blue,0.158231973648,1,0
235,0.3,0.7,BA,1,right,0.880849838257,blue,0.148050069809,1,0
236,0.3,0.7,BA,1,right,0.309319972992,blue,0.193186998367,1,0
237,0.3,0.7,BA,1,right,0.66547703743,blue,0.229438781738,1,0
238,0.3,0.7,AA,1,left,0.276501893997,blue,0.105048894882,1,0
239,0.3,0.7,BB,1,left,0.333360910416,blue,0.200129985809,1,0
240,0.3,0.7,AB,1,right,0.272327899933,blue,0.203748941422,1,0
241,0.3,0.7,BB,1,left,0.332028865814,blue,0.133576869965,1,0
242,0.3,0.7,AB,1,right,1.09675812721,blue,0.155894994736,0,0
243,0.3,0.7,AB,1,right,0.365364074707,blue,0.133605957031,1,0
244,0.3,0.7,BB,1,left,0.336380958557,blue,0.114207029343,1,0
245,0.3,0.7,AB,1,left,0.287050962448,pink,0.130837917328,0,0
246,0.3,0.7,AA,1,left,0.2527821064,blue,0.130343914032,1,0
247,0.3,0.7,AA,1,left,0.32497882843,blue,0.143640995026,1,0
248,0.3,0.7,BA,1,right,0.259459018707,blue,0.135637998581,0,0
249,0.3,0.7,BB,1,left,0.459540128708,blue,0.143543958664,1,0
250,0.3,0.7,AA,0,left,0.266247987747,pink,0.158879041672,0,0
251,0.3,0.7,AA,1,left,0.3301820755,blue,0.0910160541534,1,0
252,0.3,0.7,AB,1,right,0.312608003616,blue,0.139121055603,0,0
253,0.3,0.7,AA,1,left,0.35714507103,blue,0.126574993134,1,0
254,0.3,0.7,AA,1,left,0.258858919144,blue,0.199566841125,1,0
