trial,reward_prob_pink,reward_prob_blue,init_state,common,choice,rt1,final_state,rt2,reward,slow
1,0.7,0.3,BB,1,left,1.44660615921,blue,3.24181509018,1,0
2,0.7,0.3,AA,0,,,,,0,1
3,0.7,0.3,AB,1,left,0.331026077271,pink,2.34053015709,1,0
4,0.7,0.3,AB,1,right,0.277637004852,blue,1.39412808418,1,0
5,0.7,0.3,AA,1,left,0.280828952789,blue,1.2758231163,1,0
6,0.7,0.3,AB,1,right,0.262759923935,blue,1.09912085533,0,0
7,0.7,0.3,BB,1,left,0.22136092186,blue,0.74776506424,0,0
8,0.7,0.3,BA,1,right,0.237323045731,blue,0.618260145187,0,0
9,0.7,0.3,BA,1,left,0.337188959122,pink,0.466678142548,1,0
10,0.7,0.3,AB,1,right,0.477683067322,blue,1.46607494354,1,0
11,0.7,0.3,AA,1,left,0.310352802277,blue,0.536824941635,0,0
12,0.7,0.3,AA,1,right,0.321571826935,pink,0.411982059479,0,0
13,0.7,0.3,BA,1,right,0.386087179184,blue,0.633697032928,0,0
14,0.7,0.3,BA,1,left,0.327831029892,pink,0.426099061966,1,0
15,0.7,0.3,AB,1,left,0.375926971436,pink,0.544019937515,1,0
16,0.7,0.3,BB,1,left,0.337127923965,blue,0.388001918793,0,0
17,0.7,0.3,BB,1,left,0.362260103226,blue,0.354463100433,0,0
18,0.7,0.3,AB,1,left,0.307245016098,pink,0.350614786148,1,0
19,0.7,0.3,AA,1,left,0.336308002472,blue,0.546041965485,1,0
20,0.7,0.3,AB,1,left,0.265542030334,pink,0.30189204216,0,0
21,0.7,0.3,AA,1,left,0.312766075134,blue,0.283140897751,0,0
22,0.7,0.3,AB,1,left,0.287817001343,pink,0.30638384819,1,0
23,0.7,0.3,BB,1,left,0.30110502243,blue,0.296184062958,0,0
24,0.7,0.3,BB,1,right,0.307124853134,pink,0.526803016663,0,0
25,0.7,0.3,AA,1,left,0.312271118164,blue,0.274686098099,1,0
26,0.7,0.3,AB,1,left,0.326822042465,pink,0.298089027405,1,0
27,0.7,0.3,AA,1,right,0.276058912277,pink,0.320988893509,1,0
28,0.7,0.3,BB,1,right,0.307776927948,pink,0.31062912941,0,0
29,0.7,0.3,AA,1,right,0.289589881897,pink,0.316488981247,1,0
30,0.7,0.3,BA,1,left,0.310266017914,pink,0.329890012741,1,0
31,0.7,0.3,BA,0,left,0.274919986725,blue,0.399981975555,0,0
32,0.7,0.3,BB,0,left,0.25387096405,pink,0.267199993134,1,0
33,0.7,0.3,BB,0,left,0.279474020004,pink,1.31632518768,0,0
34,0.7,0.3,BB,1,right,0.332914829254,pink,0.358151197433,1,0
35,0.7,0.3,AB,1,left,0.272041797638,pink,0.420330047607,1,0
36,0.7,0.3,BA,0,left,0.298561096191,blue,1.91716480255,0,0
37,0.7,0.3,BB,1,right,0.269376039505,pink,0.409807920456,1,0
38,0.7,0.3,AB,1,left,0.37703704834,pink,0.545058012009,1,0
39,0.7,0.3,AB,1,left,0.338310003281,pink,0.388375997543,1,0
40,0.7,0.3,AA,1,right,0.267811059952,pink,0.400149106979,0,0
41,0.7,0.3,BB,1,right,0.2869348526,pink,0.345571994781,0,0
42,0.7,0.3,AA,1,left,0.290055990219,blue,0.32596206665,0,0
43,0.7,0.3,AB,1,left,0.28824877739,pink,0.348458051682,1,0
44,0.7,0.3,AA,1,left,0.349900007248,blue,0.317612886429,0,0
45,0.7,0.3,AA,1,left,0.415750980377,blue,0.342226982117,0,0
46,0.7,0.3,AB,1,left,0.264276027679,pink,0.229156017303,0,0
47,0.7,0.3,BB,1,right,0.545799016953,pink,0.346563816071,1,0
48,0.7,0.3,AB,0,left,0.811342954636,blue,0.242329835892,0,0
49,0.7,0.3,BA,1,left,0.782853841782,pink,0.446135997772,1,0
50,0.7,0.3,BA,1,right,0.291022062302,blue,0.246639966965,1,0
51,0.7,0.3,BB,1,left,0.2836561203,blue,0.431483030319,1,0
52,0.7,0.3,AB,1,left,0.311894893646,pink,0.266429901123,0,0
53,0.7,0.3,AA,1,left,0.247457027435,blue,0.420591831207,0,0
54,0.7,0.3,BB,0,left,0.297698974609,pink,0.204535007477,1,0
55,0.7,0.3,BA,1,left,0.268754959106,pink,0.30508518219,1,0
56,0.7,0.3,BA,1,left,0.259124040604,pink,0.264637947083,1,0
57,0.7,0.3,AA,1,right,0.268523931503,pink,0.400504112244,0,0
58,0.7,0.3,BA,0,left,0.272347211838,blue,0.292723178864,1,0
59,0.7,0.3,BB,0,left,0.264326095581,pink,0.243662834167,1,0
60,0.7,0.3,BA,1,left,0.281251192093,pink,0.324965000153,1,0
61,0.7,0.3,AA,1,right,0.224159002304,pink,0.389829874039,1,0
62,0.7,0.3,AA,1,right,0.269017934799,pink,0.442065954208,0,0
63,0.7,0.3,AA,1,right,0.334913015366,pink,0.296540975571,1,0
64,0.7,0.3,BA,1,left,0.284452199936,pink,0.367023944855,0,0
65,0.7,0.3,AB,1,right,0.24831199646,blue,0.405388116837,0,0
66,0.7,0.3,AB,0,left,0.339200019836,blue,0.228631973267,0,0
67,0.7,0.3,AA,1,right,0.259466171265,pink,0.359872102737,1,0
68,0.7,0.3,AA,1,left,0.336216926575,blue,0.281849861145,0,0
69,0.7,0.3,BA,1,left,0.286896944046,pink,0.289292097092,1,0
70,0.7,0.3,AB,1,right,0.221512079239,blue,0.299262046814,0,0
71,0.7,0.3,AB,1,left,0.462349891663,pink,0.266384124756,1,0
72,0.7,0.3,BA,0,left,0.254588127136,blue,0.260200023651,0,0
73,0.7,0.3,AB,1,left,0.25724697113,pink,0.213556051254,1,0
74,0.7,0.3,BA,1,right,0.275830030441,blue,0.40873503685,1,0
75,0.7,0.3,BA,0,right,1.1750190258,pink,0.662789106369,1,0
76,0.7,0.3,BA,1,right,0.275725126266,blue,0.287987947464,0,0
77,0.7,0.3,AB,0,left,0.290561914444,blue,0.326757907867,0,0
78,0.7,0.3,BB,1,right,0.22552895546,pink,0.31985783577,1,0
79,0.7,0.3,AB,1,left,0.240967988968,pink,0.294855117798,1,0
80,0.7,0.3,AA,0,left,0.281731843948,pink,0.269529104233,1,0
81,0.7,0.3,AA,1,left,0.370699167252,blue,0.250971078873,0,0
82,0.7,0.3,AA,1,left,0.246777057648,blue,0.267936229706,0,0
83,0.7,0.3,AB,1,left,0.272094964981,pink,0.244329214096,1,0
84,0.7,0.3,AB,1,left,0.25054693222,pink,0.191345214844,1,0
85,0.7,0.3,BA,1,right,0.287034034729,blue,0.258820056915,0,0
86,0.7,0.3,AB,1,left,0.262731075287,pink,0.186962127686,1,0
87,0.7,0.3,BA,0,left,0.283702135086,blue,0.20650100708,0,0
88,0.7,0.3,AB,1,left,0.285409212112,pink,0.201111078262,0,0
89,0.7,0.3,AA,0,right,0.423939943314,blue,0.214925050735,0,0
90,0.7,0.3,AA,0,left,0.276423931122,pink,0.20105099678,1,0
91,0.7,0.3,BA,1,right,0.271769046783,blue,0.228549003601,0,0
92,0.7,0.3,AA,1,left,0.257876157761,blue,0.278913974762,1,0
93,0.7,0.3,BA,1,left,0.24324297905,pink,0.249042034149,0,0
94,0.7,0.3,AA,0,left,0.26873588562,pink,0.322350025177,1,0
95,0.7,0.3,BB,1,left,0.283668041229,blue,0.303319215775,0,0
96,0.7,0.3,BA,1,left,0.587264060974,pink,0.242841005325,0,0
97,0.7,0.3,BB,0,left,0.288355112076,pink,0.219231843948,1,0
98,0.7,0.3,BB,1,right,0.257391929626,pink,0.359054088593,1,0
99,0.7,0.3,AA,1,left,0.272426128387,blue,0.156575918198,0,0
100,0.7,0.3,AB,1,left,0.285556077957,pink,0.225345134735,1,0
101,0.7,0.3,BA,1,left,0.246440887451,pink,0.179607868195,1,0
102,0.7,0.3,BA,1,left,0.319244861603,pink,0.161549091339,0,0
103,0.7,0.3,AA,1,left,0.266703128815,blue,0.166798114777,1,0
104,0.7,0.3,AA,1,left,0.27015709877,blue,0.218629837036,1,0
105,0.7,0.3,BA,1,right,0.241891145706,blue,0.230746030807,0,0
106,0.7,0.3,BB,1,right,0.251854896545,pink,0.201630115509,0,0
107,0.7,0.3,BA,0,right,0.288245916367,pink,0.259992837906,0,0
108,0.7,0.3,AA,1,left,0.297899961472,blue,0.211819171906,1,0
109,0.7,0.3,BA,0,left,0.538185834885,blue,0.499433994293,1,0
110,0.7,0.3,BA,1,left,0.558278083801,pink,0.151645898819,1,0
111,0.7,0.3,AB,1,left,0.328310012817,pink,0.241789102554,1,0
112,0.7,0.3,AB,1,left,0.352110147476,pink,0.185497045517,1,0
113,0.7,0.3,AB,1,left,0.424082994461,pink,0.158936023712,0,0
114,0.7,0.3,AA,0,left,0.272362947464,pink,0.155845165253,0,0
115,0.7,0.3,BB,1,left,0.27748799324,blue,0.162023067474,1,0
116,0.7,0.3,BB,1,left,0.361301183701,blue,0.154930114746,0,0
117,0.7,0.3,BB,1,left,0.291651964188,blue,0.190748929977,0,0
118,0.7,0.3,AB,1,left,0.270742893219,pink,0.170192956924,1,0
119,0.7,0.3,AA,1,left,0.282721042633,blue,0.21511888504,0,0
120,0.7,0.3,AA,1,right,0.277404069901,pink,0.25799202919,0,0
121,0.7,0.3,AB,1,left,0.294720888138,pink,0.226411104202,1,0
122,0.7,0.3,AA,1,left,0.288990974426,blue,0.316650152206,1,0
123,0.7,0.3,BA,1,left,0.278022050858,pink,0.39352107048,1,0
124,0.7,0.3,AA,1,left,0.256737947464,blue,0.222746133804,0,0
125,0.7,0.3,AB,1,left,0.524331092834,pink,0.206927061081,1,0
126,0.7,0.3,AA,0,left,0.470630884171,pink,0.226751089096,0,0
127,0.7,0.3,BB,1,left,0.263705968857,blue,0.140316009521,0,0
128,0.7,0.3,BB,1,right,0.294089794159,pink,0.27400803566,1,0
129,0.7,0.3,AB,1,left,0.438517093658,pink,0.140563011169,1,0
130,0.7,0.3,BA,0,left,0.316954851151,blue,0.159451007843,0,0
131,0.7,0.3,BA,1,right,0.288681983948,blue,0.204587936401,0,0
132,0.7,0.3,BB,1,left,0.276225090027,blue,0.231802940369,0,0
133,0.7,0.3,AB,1,left,0.341994047165,pink,0.231987953186,1,0
134,0.7,0.3,BB,0,left,0.252423048019,pink,0.130439996719,1,0
135,0.7,0.3,BB,1,left,0.308247804642,blue,0.286808013916,0,0
136,0.7,0.3,BB,1,right,0.370807886124,pink,0.19385099411,0,0
137,0.7,0.3,BB,0,left,0.21088218689,pink,0.16187620163,1,0
138,0.7,0.3,AA,1,left,0.322952032089,blue,0.124203920364,1,0
139,0.7,0.3,AA,1,left,0.199634075165,blue,0.102626085281,0,0
140,0.7,0.3,BB,1,left,0.136662006378,blue,0.162296056747,0,0
141,0.7,0.3,AA,1,left,0.331856012344,blue,0.149592876434,0,0
142,0.7,0.3,BA,1,right,0.141671895981,blue,0.287790060043,0,0
143,0.7,0.3,BB,1,left,0.251803874969,blue,0.240833997726,0,0
144,0.7,0.3,AB,1,left,0.493552207947,pink,0.218027830124,1,0
145,0.7,0.3,AB,0,left,0.383908033371,blue,0.143890857697,0,0
146,0.7,0.3,BA,1,left,0.281768083572,pink,0.165416002274,0,0
147,0.7,0.3,BB,1,left,0.276526212692,blue,0.145107030869,0,0
148,0.7,0.3,AA,1,left,0.274087190628,blue,0.102898836136,0,0
149,0.7,0.3,BB,1,left,0.249415874481,blue,0.126436948776,1,0
150,0.7,0.3,AB,1,right,0.280471086502,blue,0.285555124283,0,0
151,0.7,0.3,BA,1,right,0.256329774857,blue,0.245090961456,1,0
152,0.7,0.3,AB,1,right,0.263134002686,blue,0.299422025681,0,0
153,0.7,0.3,AA,1,left,0.287456989288,blue,0.242112159729,0,0
154,0.7,0.3,AA,1,left,0.232703208923,blue,0.174433946609,1,0
155,0.7,0.3,AB,1,left,0.285640001297,pink,0.153365135193,1,0
156,0.7,0.3,AA,1,left,0.763147830963,blue,0.147313117981,1,0
157,0.7,0.3,BA,1,right,0.283408880234,blue,0.182909011841,0,0
158,0.7,0.3,AB,1,left,0.302622079849,pink,0.161680936813,1,0
159,0.7,0.3,BA,0,left,0.5857899189,blue,0.169475078583,0,0
160,0.7,0.3,AB,1,right,0.441905975342,blue,0.223657131195,0,0
161,0.7,0.3,AA,1,left,0.325946092606,blue,0.176499843597,1,0
162,0.7,0.3,BA,1,left,0.320844888687,pink,0.171299934387,0,0
163,0.7,0.3,BA,1,right,0.306973934174,blue,0.198585033417,1,0
164,0.7,0.3,BA,1,left,1.51711702347,pink,0.0794830322266,1,0
165,0.7,0.3,AA,1,left,0.419018030167,blue,0.0892159938812,0,0
166,0.7,0.3,AB,1,left,0.613123893738,pink,0.106578111649,1,0
167,0.7,0.3,AA,1,right,0.26231098175,pink,0.170570850372,1,0
168,0.7,0.3,BA,1,left,0.306797027588,pink,0.124944925308,0,0
169,0.7,0.3,AA,1,left,0.328268051147,blue,0.194001913071,0,0
170,0.7,0.3,AB,1,left,0.265238046646,pink,0.245670080185,1,0
171,0.7,0.3,BA,1,right,0.258416891098,blue,0.223860025406,0,0
172,0.7,0.3,AA,1,left,0.30180811882,blue,0.240805149078,1,0
173,0.7,0.3,BB,1,left,0.262763023376,blue,0.194964170456,0,0
174,0.7,0.3,AB,0,left,0.402534008026,blue,0.209703922272,1,0
175,0.7,0.3,BB,1,left,0.543688058853,blue,0.194187879562,0,0
176,0.7,0.3,AA,1,left,0.688690185547,blue,0.18853020668,0,0
177,0.7,0.3,AA,1,left,0.491669893265,blue,0.207962989807,0,0
178,0.7,0.3,AA,0,right,0.278156995773,blue,0.19403386116,1,0
179,0.7,0.3,BB,1,left,0.282814025879,blue,0.158403158188,0,0
180,0.7,0.3,AB,0,right,0.230517864227,pink,0.171975851059,1,0
181,0.7,0.3,BA,1,right,0.261492013931,blue,0.338121891022,0,0
182,0.7,0.3,AA,0,left,0.595129013062,pink,0.226881980896,1,0
183,0.7,0.3,BA,1,left,0.248024940491,pink,0.188933849335,1,0
184,0.7,0.3,BA,1,left,0.244797945023,pink,0.137840986252,1,0
185,0.7,0.3,BB,0,right,0.259423971176,blue,0.200899839401,1,0
186,0.7,0.3,BA,0,left,0.319531202316,blue,0.121748924255,0,0
187,0.7,0.3,AA,1,left,0.260155916214,blue,0.13005900383,0,0
188,0.7,0.3,BA,1,right,0.482915878296,blue,0.214372158051,0,0
189,0.7,0.3,BA,0,left,0.340671062469,blue,0.190752983093,0,0
190,0.7,0.3,AA,1,left,0.262056827545,blue,0.178292989731,0,0
191,0.7,0.3,BB,1,right,0.186031103134,pink,0.20200586319,0,0
192,0.7,0.3,BB,1,right,0.249548912048,pink,0.182909011841,1,0
193,0.7,0.3,AA,1,right,0.245574951172,pink,0.162473917007,1,0
194,0.7,0.3,BA,1,left,0.267371892929,pink,0.144291162491,1,0
195,0.7,0.3,AA,1,left,0.305781841278,blue,0.132304906845,0,0
196,0.7,0.3,AA,1,left,0.270630121231,blue,0.082065820694,1,0
197,0.7,0.3,AB,1,right,0.285619974136,blue,0.153295040131,0,0
198,0.7,0.3,AB,1,right,0.22664809227,blue,0.200880050659,1,0
199,0.7,0.3,AB,0,right,0.271898984909,pink,0.196918010712,0,0
200,0.7,0.3,AA,1,left,0.27515411377,blue,0.135771036148,0,0
201,0.7,0.3,AA,1,right,0.273263931274,pink,0.198504924774,1,0
202,0.7,0.3,AA,1,left,0.394754886627,blue,0.202055931091,1,0
203,0.7,0.3,AB,1,left,0.279942989349,pink,0.0998330116272,1,0
204,0.7,0.3,BB,1,left,0.263081073761,blue,0.131280183792,1,0
205,0.7,0.3,BB,0,right,0.324998855591,blue,0.151657104492,0,0
206,0.7,0.3,BB,1,right,0.392759084702,pink,0.192656993866,1,0
207,0.7,0.3,BA,1,right,0.280674934387,blue,0.148418903351,1,0
208,0.7,0.3,AA,1,right,0.412430047989,pink,0.138380050659,1,0
209,0.7,0.3,AA,1,left,0.349005937576,blue,0.0854048728943,0,0
210,0.7,0.3,BA,1,left,0.297665834427,pink,0.12399315834,1,0
211,0.7,0.3,AA,1,left,0.326308965683,blue,0.0886681079865,0,0
212,0.7,0.3,BB,0,left,0.292456150055,pink,0.144755125046,0,0
213,0.7,0.3,AB,1,left,0.353137969971,pink,0.129987001419,0,0
214,0.7,0.3,AB,0,left,0.252712965012,blue,0.1060090065,1,0
215,0.7,0.3,AB,1,left,0.308835029602,pink,0.151808023453,1,0
216,0.7,0.3,AA,1,left,0.323379993439,blue,0.122874975204,0,0
217,0.7,0.3,BB,0,right,0.30862903595,blue,0.135673999786,1,0
218,0.7,0.3,BB,0,right,0.11426281929,blue,0.147868156433,1,0
219,0.7,0.3,BA,1,right,0.221241950989,blue,0.148076057434,0,0
220,0.7,0.3,AA,1,left,0.236883878708,blue,0.17063999176,0,0
221,0.7,0.3,AA,1,left,0.578178882599,blue,0.105643987656,0,0
222,0.7,0.3,AA,1,left,0.253720998764,blue,0.1459441185,1,0
223,0.7,0.3,BA,1,left,0.770372867584,pink,0.114588975906,0,0
224,0.7,0.3,AB,1,right,0.237040996552,blue,0.170630931854,0,0
225,0.7,0.3,AB,1,left,0.252114057541,pink,0.14417386055,1,0
226,0.7,0.3,AB,1,left,0.313020944595,pink,0.155456066132,1,0
227,0.7,0.3,AA,1,left,0.236618041992,blue,0.130143165588,1,0
228,0.7,0.3,AB,1,left,0.2919049263,pink,0.12793803215,1,0
229,0.7,0.3,AB,1,left,0.289057970047,pink,0.125926017761,1,0
230,0.7,0.3,AA,1,right,0.287381887436,pink,0.123262882233,0,0
231,0.7,0.3,BA,1,right,0.261460065842,blue,0.16980099678,0,0
232,0.7,0.3,BB,1,left,0.346713066101,blue,0.132170915604,1,0
233,0.7,0.3,BA,1,left,0.30973815918,pink,0.135904073715,0,0
234,0.7,0.3,AB,1,right,0.282465934753,blue,0.166277885437,1,0
235,0.7,0.3,BB,0,right,0.525567054749,blue,0.208075046539,1,0
236,0.7,0.3,BA,0,right,0.327014923096,pink,0.209992170334,1,0
237,0.7,0.3,BB,0,right,0.463865995407,blue,0.164074897766,0,0
238,0.7,0.3,BA,1,left,0.709172010422,pink,1.43166089058,1,0
239,0.7,0.3,AB,0,left,0.243770122528,blue,0.409932851791,0,0
240,0.7,0.3,BB,1,right,0.28134894371,pink,0.244300842285,1,0
241,0.7,0.3,AA,1,left,0.0976610183716,blue,0.18864107132,1,0
242,0.7,0.3,BB,1,right,0.365551948547,pink,0.213656187057,0,0
243,0.7,0.3,BA,1,left,0.268015861511,pink,0.256494998932,0,0
244,0.7,0.3,BB,1,left,0.268388986588,blue,0.480536937714,0,0
245,0.7,0.3,BA,1,left,0.275985956192,pink,0.273025035858,1,0
246,0.7,0.3,BA,0,left,0.309729814529,blue,0.231932163239,0,0
247,0.7,0.3,AA,1,right,0.213212966919,pink,0.25173997879,0,0
248,0.7,0.3,AA,1,left,0.401751041412,blue,0.296633958817,1,0
249,0.7,0.3,AA,1,left,0.299633979797,blue,0.245730876923,1,0
250,0.7,0.3,AB,1,left,0.386327981949,pink,0.330236911774,1,0
251,0.7,0.3,AB,1,right,0.227574110031,blue,0.21000289917,0,0
