trial,reward_prob_pink,reward_prob_blue,init_state,common,choice,rt1,final_state,rt2,reward,slow
1,0.3,0.7,AA,1,left,0.860422134399,blue,4.24829316139,1,0
2,0.3,0.7,AA,1,,,,,0,1
3,0.3,0.7,AA,1,left,0.0479409694672,blue,2.47725200653,1,0
4,0.3,0.7,AB,1,right,0.30363702774,blue,1.25884580612,1,0
5,0.3,0.7,BB,1,left,0.558786153793,blue,1.19969916344,1,0
6,0.3,0.7,BA,1,right,0.118896961212,blue,1.05642294884,1,0
7,0.3,0.7,AB,1,right,0.445606946945,blue,0.938519954681,0,0
8,0.3,0.7,AA,0,left,0.00186991691589,pink,1.88900399208,1,0
9,0.3,0.7,AB,1,left,0.419080018997,pink,0.930037975311,0,0
10,0.3,0.7,AA,1,right,0.795631885529,pink,0.714262962341,0,0
11,0.3,0.7,BB,1,right,0.675723075867,pink,1.11294293404,0,0
12,0.3,0.7,BB,0,left,0.617878913879,pink,1.19961595535,0,0
13,0.3,0.7,AB,1,left,0.86240696907,pink,0.897439956665,0,0
14,0.3,0.7,AA,0,right,0.819875001907,blue,1.70689606667,0,0
15,0.3,0.7,AB,0,right,0.556376218796,pink,0.812616109848,1,0
16,0.3,0.7,BA,1,left,0.810240983963,pink,3.5698390007,0,0
17,0.3,0.7,BA,0,left,0.495448827744,blue,10.9306821823,1,0
18,0.3,0.7,BB,1,right,1.65883278847,pink,1.48788094521,0,0
19,0.3,0.7,BB,0,left,1.0573849678,pink,2.3098449707,0,0
20,0.3,0.7,AB,1,right,1.36820197105,blue,1.86299991608,0,0
21,0.3,0.7,BB,0,left,1.28256082535,pink,2.51746487617,1,0
22,0.3,0.7,BA,1,right,0.613865852356,blue,1.58794307709,1,0
23,0.3,0.7,AB,1,right,0.250407934189,blue,0.999620199203,1,0
24,0.3,0.7,BB,1,left,0.533719062805,blue,0.918130874634,1,0
25,0.3,0.7,AB,0,right,0.456005096436,pink,2.53402686119,1,0
26,0.3,0.7,BA,1,left,0.628806829453,pink,1.12209916115,1,0
27,0.3,0.7,BB,1,right,0.444736003876,pink,0.785983800888,0,0
28,0.3,0.7,BA,0,left,1.34499192238,blue,2.13020682335,1,0
29,0.3,0.7,AA,0,left,0.72930598259,pink,2.1783721447,0,0
30,0.3,0.7,BA,1,right,0.913273096085,blue,0.891074895859,1,0
31,0.3,0.7,AA,1,left,0.654440164566,blue,0.915452003479,1,0
32,0.3,0.7,BB,1,left,1.86047792435,blue,0.776813983917,1,0
33,0.3,0.7,AB,1,right,0.473181009293,blue,0.764575004578,1,0
34,0.3,0.7,BB,1,left,0.539924144745,blue,0.805875062943,1,0
35,0.3,0.7,BB,1,left,0.613398075104,blue,0.731317996979,1,0
36,0.3,0.7,AA,1,left,0.5234811306,blue,0.845875024796,1,0
37,0.3,0.7,BA,1,right,0.363212108612,blue,0.923454046249,1,0
38,0.3,0.7,AA,0,left,0.461071014404,pink,2.42625808716,0,0
39,0.3,0.7,AA,0,left,0.502629995346,pink,2.20141816139,0,0
40,0.3,0.7,BA,1,right,0.566843986511,blue,1.71896791458,1,0
41,0.3,0.7,AB,0,right,0.382952928543,pink,2.19852900505,0,0
42,0.3,0.7,BB,1,left,0.381092071533,blue,1.10850906372,1,0
43,0.3,0.7,BB,1,left,0.382875204086,blue,1.2213640213,1,0
44,0.3,0.7,BA,1,right,0.634785175323,blue,1.10406494141,1,0
45,0.3,0.7,BB,1,left,0.58753991127,blue,0.945952177048,0,0
46,0.3,0.7,BB,1,left,0.690258026123,blue,1.00552797318,1,0
47,0.3,0.7,AA,1,left,0.499855041504,blue,0.710484027863,1,0
48,0.3,0.7,AA,0,left,0.72935295105,pink,1.93898701668,0,0
49,0.3,0.7,AB,1,right,0.386785984039,blue,0.810452222824,1,0
50,0.3,0.7,BB,1,left,0.62596487999,blue,0.855825901031,1,0
51,0.3,0.7,BB,1,left,0.363595962524,blue,0.84348988533,1,0
52,0.3,0.7,BB,1,right,0.387092828751,pink,0.914731025696,0,0
53,0.3,0.7,AA,1,left,0.314903974533,blue,0.838165044785,0,0
54,0.3,0.7,AB,1,left,1.53885912895,pink,0.995290994644,0,0
55,0.3,0.7,BA,1,left,0.977762937546,pink,0.986138820648,0,0
56,0.3,0.7,AA,1,left,0.416666984558,blue,0.790704011917,1,0
57,0.3,0.7,BA,1,right,1.60622119904,blue,0.925151824951,0,0
58,0.3,0.7,BA,1,right,0.853236913681,blue,0.651334047318,0,0
59,0.3,0.7,BA,1,right,1.32788085938,blue,2.93724703789,1,0
60,0.3,0.7,AB,1,,,,,0,1
61,0.3,0.7,AA,1,left,0.629974126816,blue,0.771437883377,1,0
62,0.3,0.7,AB,1,right,0.36444401741,blue,0.788641929626,1,0
63,0.3,0.7,AA,1,left,0.675743103027,blue,0.982819795609,0,0
64,0.3,0.7,AB,0,right,0.758101940155,pink,1.11953210831,0,0
65,0.3,0.7,BB,1,left,0.471898078918,blue,0.73237490654,0,0
66,0.3,0.7,AB,1,right,0.390348911285,blue,0.940950155258,1,0
67,0.3,0.7,BA,1,right,1.07014393806,blue,1.06588101387,0,0
68,0.3,0.7,BA,0,left,1.03785705566,blue,1.73970198631,1,0
69,0.3,0.7,AA,0,left,0.523900985718,pink,1.41364216805,0,0
70,0.3,0.7,BB,0,left,0.810308933258,pink,1.92900490761,0,0
71,0.3,0.7,AA,1,right,0.601094007492,pink,1.15187001228,1,0
72,0.3,0.7,BA,0,left,1.26434898376,blue,2.25175404549,1,0
73,0.3,0.7,AA,1,right,0.440016031265,pink,1.02987599373,0,0
74,0.3,0.7,AA,1,left,0.505531072617,blue,1.34048700333,0,0
75,0.3,0.7,BB,0,right,0.478239059448,blue,0.970077037811,0,0
76,0.3,0.7,AB,1,right,0.744930028915,blue,2.11381411552,1,0
77,0.3,0.7,AB,1,right,0.44228887558,blue,0.935992002487,1,0
78,0.3,0.7,BA,1,left,0.496611118317,pink,0.916965961456,1,0
79,0.3,0.7,AA,1,right,1.03868293762,pink,0.834543943405,0,0
80,0.3,0.7,AB,1,right,0.872798919678,blue,0.700092792511,1,0
81,0.3,0.7,AB,1,right,1.36726880074,blue,0.886716127396,1,0
82,0.3,0.7,AA,1,left,0.624409914017,blue,0.894948959351,0,0
83,0.3,0.7,BB,1,right,0.714216947556,pink,0.859818935394,0,0
84,0.3,0.7,AA,1,right,1.2315621376,pink,0.796679973602,0,0
85,0.3,0.7,AB,1,right,1.09903097153,blue,0.838371992111,1,0
86,0.3,0.7,AA,1,left,0.490451097488,blue,0.798092126846,0,0
87,0.3,0.7,AA,1,right,0.477490901947,pink,0.848779916763,0,0
88,0.3,0.7,BB,1,right,1.25332188606,pink,0.721433877945,0,0
89,0.3,0.7,BB,1,right,0.460097074509,pink,0.816943883896,0,0
90,0.3,0.7,AA,1,left,1.02196788788,blue,0.652907848358,0,0
91,0.3,0.7,AB,1,right,0.793488025665,blue,0.55982208252,0,0
92,0.3,0.7,AB,1,left,0.808386087418,pink,0.71192908287,0,0
93,0.3,0.7,AA,1,right,0.602675199509,pink,0.841423988342,0,0
94,0.3,0.7,BA,1,right,0.653470993042,blue,0.874080181122,0,0
95,0.3,0.7,AB,0,right,0.0308890342712,pink,1.51571798325,0,0
96,0.3,0.7,AB,1,left,0.717011213303,pink,0.75094294548,0,0
97,0.3,0.7,AB,1,left,1.19256806374,pink,0.862721920013,0,0
98,0.3,0.7,BB,1,left,0.922170877457,blue,0.813153982162,0,0
99,0.3,0.7,AA,0,,,,,0,1
100,0.3,0.7,BB,1,right,0.576223134995,pink,0.864966869354,1,0
101,0.3,0.7,BB,1,right,1.75708603859,pink,1.1650660038,0,0
102,0.3,0.7,BB,1,right,0.604442119598,pink,0.731333017349,0,0
103,0.3,0.7,BB,1,right,0.339343070984,pink,0.660982131958,1,0
104,0.3,0.7,BA,1,left,0.812708854675,pink,2.10773420334,0,0
105,0.3,0.7,AB,1,left,0.588307857513,pink,0.963606834412,0,0
106,0.3,0.7,AA,1,left,0.771497011185,blue,0.88371515274,0,0
107,0.3,0.7,BB,1,right,1.26216983795,pink,0.817691802979,0,0
108,0.3,0.7,BB,1,right,0.472670793533,pink,0.700753927231,1,0
109,0.3,0.7,BB,1,right,0.502455949783,pink,0.657141208649,0,0
110,0.3,0.7,BB,0,right,1.14184403419,blue,0.750445842743,0,0
111,0.3,0.7,BA,1,,,,,0,1
112,0.3,0.7,BB,0,right,0.341420173645,blue,1.49588799477,1,0
113,0.3,0.7,AA,1,right,0.729178905487,pink,0.859384059906,0,0
114,0.3,0.7,BA,1,left,1.38275885582,pink,0.741477966309,0,0
115,0.3,0.7,BA,0,right,0.423829078674,pink,0.861654996872,0,0
116,0.3,0.7,BA,1,left,0.513434886932,pink,1.82787680626,0,0
117,0.3,0.7,BA,1,right,0.784778833389,blue,0.815949201584,1,0
118,0.3,0.7,BA,1,right,0.454578876495,blue,1.07578706741,0,0
119,0.3,0.7,AB,1,left,0.774237155914,pink,0.790844917297,0,0
120,0.3,0.7,AA,1,left,0.677382946014,blue,1.2662050724,1,0
121,0.3,0.7,AA,1,left,0.668867111206,blue,0.736998081207,0,0
122,0.3,0.7,AA,0,left,0.363108158112,pink,0.683484792709,0,0
123,0.3,0.7,BB,1,left,0.477650165558,blue,0.618228912354,0,0
124,0.3,0.7,BA,1,right,0.983791828156,blue,0.799947977066,0,0
125,0.3,0.7,BA,1,right,0.525398015976,blue,0.728009939194,1,0
126,0.3,0.7,BB,1,left,0.585616827011,blue,0.857043027878,0,0
127,0.3,0.7,AB,1,right,0.677321910858,blue,0.682142972946,1,0
128,0.3,0.7,BB,1,left,0.452540874481,blue,0.570554018021,1,0
129,0.3,0.7,AB,1,left,0.561553001404,pink,0.68205499649,0,0
130,0.3,0.7,AB,0,right,1.20601892471,pink,2.86804389954,0,0
131,0.3,0.7,AB,1,right,1.19007515907,blue,0.757201194763,1,0
132,0.3,0.7,AB,1,right,0.348741054535,blue,0.685812950134,0,0
133,0.3,0.7,BA,0,right,0.505059957504,pink,1.69287085533,0,0
134,0.3,0.7,BB,1,left,0.710313081741,blue,0.84192609787,1,0
135,0.3,0.7,AB,1,right,0.334851026535,blue,0.640289783478,0,0
136,0.3,0.7,BB,1,left,0.820945978165,blue,0.722993850708,0,0
137,0.3,0.7,AA,0,right,0.325820922852,blue,0.895985126495,0,0
138,0.3,0.7,AA,1,right,0.321542978287,pink,0.611859083176,0,0
139,0.3,0.7,AB,1,left,0.585875988007,pink,0.538531064987,0,0
140,0.3,0.7,AB,1,left,1.65081000328,pink,1.17506504059,0,0
141,0.3,0.7,BB,0,left,1.11127495766,pink,1.18476080894,0,0
142,0.3,0.7,BA,1,right,0.759501934052,blue,0.945080041885,1,0
143,0.3,0.7,BB,1,left,0.369379043579,blue,0.626548051834,0,0
144,0.3,0.7,BA,1,right,1.07226896286,blue,1.17933797836,0,0
145,0.3,0.7,BA,1,left,0.434808015823,pink,0.632210969925,0,0
146,0.3,0.7,AB,1,right,1.66872406006,blue,0.760832071304,0,0
147,0.3,0.7,AA,1,left,0.425542116165,blue,0.510792016983,0,0
148,0.3,0.7,AB,1,left,0.393478870392,pink,0.40998005867,0,0
149,0.3,0.7,BB,1,right,0.528913021088,pink,0.522173881531,0,0
150,0.3,0.7,AA,0,left,0.316066980362,pink,0.486289024353,0,0
151,0.3,0.7,AB,1,right,1.04273509979,blue,0.751524925232,1,0
152,0.3,0.7,BB,0,left,0.424459934235,pink,0.942624092102,1,0
153,0.3,0.7,AB,0,right,0.502648115158,pink,2.07354688644,1,0
154,0.3,0.7,AA,1,left,0.380175113678,blue,0.725051164627,1,0
155,0.3,0.7,AA,1,left,0.483193159103,blue,2.42281484604,1,0
156,0.3,0.7,AA,0,left,0.346082925797,pink,1.25124502182,0,0
157,0.3,0.7,BB,1,left,0.376242160797,blue,0.944067001343,1,0
158,0.3,0.7,AB,0,right,0.648574113846,pink,1.39725613594,0,0
159,0.3,0.7,BA,1,right,0.723341941833,blue,0.773373126984,1,0
160,0.3,0.7,BB,1,left,0.557033061981,blue,0.774631977081,1,0
161,0.3,0.7,AA,0,right,0.614125967026,blue,0.939759969711,0,0
162,0.3,0.7,AA,1,left,0.468837022781,blue,0.746059894562,1,0
163,0.3,0.7,AB,1,right,0.282799005508,blue,0.629190921783,1,0
164,0.3,0.7,AB,1,left,0.610553026199,pink,2.522315979,0,0
165,0.3,0.7,BA,1,right,0.314873933792,blue,0.597140073776,1,0
166,0.3,0.7,BB,1,left,0.523775815964,blue,0.549582958221,1,0
167,0.3,0.7,BA,0,right,0.366730928421,pink,0.806809902191,0,0
168,0.3,0.7,AB,1,right,0.316357135773,blue,0.486642122269,0,0
169,0.3,0.7,AA,1,left,0.338015079498,blue,0.571572065353,1,0
170,0.3,0.7,BB,1,left,0.27575802803,blue,0.377141952515,1,0
171,0.3,0.7,AB,1,left,0.425346851349,pink,0.622822999954,0,0
172,0.3,0.7,AB,1,,,,,0,1
173,0.3,0.7,BA,1,left,0.250661849976,pink,0.503925085068,0,0
174,0.3,0.7,BA,0,right,0.338497877121,pink,0.573465108871,0,0
175,0.3,0.7,AB,1,right,0.56415605545,blue,0.612442970276,0,0
176,0.3,0.7,BA,1,right,0.307380199432,blue,0.525642156601,0,0
177,0.3,0.7,AA,1,left,0.512459993362,blue,0.666595935822,1,0
178,0.3,0.7,BB,1,left,0.34116101265,blue,0.45583319664,0,0
179,0.3,0.7,BB,1,left,0.460968017578,blue,0.473001003265,0,0
180,0.3,0.7,BA,1,right,0.605047941208,blue,0.651693105698,1,0
181,0.3,0.7,AA,1,left,0.537302970886,blue,0.625517129898,1,0
182,0.3,0.7,BA,1,right,0.351607084274,blue,0.816699981689,1,0
183,0.3,0.7,AA,1,left,0.415343999863,blue,0.421633005142,1,0
184,0.3,0.7,BA,1,right,0.290802001953,blue,0.510395050049,1,0
185,0.3,0.7,AB,1,right,0.297877073288,blue,0.525027036667,1,0
186,0.3,0.7,BB,1,left,0.286245107651,blue,0.418241024017,1,0
187,0.3,0.7,BB,1,left,0.288109064102,blue,0.387577056885,1,0
188,0.3,0.7,BA,1,right,0.340226173401,blue,0.445813894272,1,0
189,0.3,0.7,BA,1,left,0.930796861649,pink,2.05217194557,0,0
190,0.3,0.7,BA,1,right,0.423262119293,blue,0.396574020386,0,0
191,0.3,0.7,BA,1,right,0.371392965317,blue,0.292125940323,0,0
192,0.3,0.7,AA,1,left,0.319180011749,blue,0.530297994614,1,0
193,0.3,0.7,AB,1,right,0.947770118713,blue,0.636595010757,1,0
194,0.3,0.7,AB,1,right,0.369738817215,blue,0.938066005707,1,0
195,0.3,0.7,BB,1,left,0.625914096832,blue,0.528853178024,1,0
196,0.3,0.7,BB,1,left,0.178447961807,blue,0.506134033203,1,0
197,0.3,0.7,BB,1,left,0.493682146072,blue,0.360702037811,1,0
198,0.3,0.7,BA,1,right,0.320956945419,blue,0.53929400444,1,0
199,0.3,0.7,AB,1,right,0.340605020523,blue,0.510861873627,0,0
200,0.3,0.7,AA,1,left,0.369627952576,blue,0.290511131287,1,0
201,0.3,0.7,BA,1,left,0.54883313179,pink,0.365583181381,0,0
202,0.3,0.7,BA,1,right,0.326608896255,blue,0.50506901741,0,0
203,0.3,0.7,AB,1,right,0.903177022934,blue,0.453350067139,1,0
204,0.3,0.7,BB,0,left,0.339215993881,pink,1.2610681057,0,0
205,0.3,0.7,BA,0,right,0.512264966965,pink,0.561970949173,0,0
206,0.3,0.7,BA,1,right,0.291164875031,blue,0.566905021667,1,0
207,0.3,0.7,AA,1,left,0.294892072678,blue,0.385818958282,1,0
208,0.3,0.7,BB,0,left,0.321338176727,pink,0.411598920822,0,0
209,0.3,0.7,BB,0,right,0.338796138763,blue,0.524040937424,0,0
210,0.3,0.7,BB,1,right,0.565471172333,pink,1.12671494484,0,0
211,0.3,0.7,BB,1,left,0.335201025009,blue,0.624883890152,0,0
212,0.3,0.7,AB,1,right,1.09480118752,blue,0.634508132935,1,0
213,0.3,0.7,AB,0,right,0.302537918091,pink,0.625440120697,0,0
214,0.3,0.7,AA,0,left,0.29550409317,pink,1.38660693169,0,0
215,0.3,0.7,AA,1,left,0.650172948837,blue,0.518989086151,1,0
216,0.3,0.7,BA,1,right,0.455812931061,blue,0.26077580452,1,0
217,0.3,0.7,BA,0,right,0.306347846985,pink,0.229767084122,1,0
218,0.3,0.7,BA,1,left,0.347486972809,pink,0.371297121048,0,0
219,0.3,0.7,AA,1,left,0.379565954208,blue,0.460098981857,1,0
220,0.3,0.7,BA,1,right,0.543480157852,blue,0.378005027771,1,0
221,0.3,0.7,AB,1,right,0.418562173843,blue,0.527658939362,1,0
222,0.3,0.7,AA,1,left,0.331007957458,blue,0.364476919174,0,0
223,0.3,0.7,BB,1,left,0.363588094711,blue,0.396004915237,0,0
224,0.3,0.7,BB,1,left,0.322765827179,blue,0.389321088791,1,0
225,0.3,0.7,BB,0,left,0.55761218071,pink,1.76645803452,0,0
226,0.3,0.7,AA,0,left,0.0846149921417,pink,1.80047106743,1,0
227,0.3,0.7,BA,1,left,0.374186992645,pink,0.574651002884,0,0
228,0.3,0.7,AA,1,left,0.502398014069,blue,0.36999797821,1,0
229,0.3,0.7,BB,1,left,0.426220178604,blue,0.559779167175,1,0
230,0.3,0.7,AB,1,right,0.46403002739,blue,0.493040084839,1,0
231,0.3,0.7,BA,1,left,0.600793123245,pink,3.01549482346,0,0
232,0.3,0.7,AA,1,left,0.915068864822,blue,1.30069708824,0,0
233,0.3,0.7,AA,1,right,0.470479011536,pink,0.674780130386,0,0
234,0.3,0.7,AB,0,right,0.479667901993,pink,0.595139026642,1,0
235,0.3,0.7,BB,1,left,0.145364046097,blue,1.18663096428,1,0
236,0.3,0.7,AB,1,right,0.40238404274,blue,0.281331062317,1,0
237,0.3,0.7,BA,1,left,0.531660079956,pink,0.54941701889,1,0
238,0.3,0.7,BA,1,right,0.49426984787,blue,0.426124095917,1,0
239,0.3,0.7,AB,0,right,0.504680156708,pink,0.354931116104,0,0
240,0.3,0.7,BA,0,right,0.403375864029,pink,0.266502857208,1,0
241,0.3,0.7,AB,1,right,0.479161024094,blue,0.23517203331,0,0
242,0.3,0.7,BB,1,left,0.447575092316,blue,0.324724912643,1,0
243,0.3,0.7,AA,1,right,0.487817049026,pink,0.227622032166,1,0
244,0.3,0.7,BB,1,left,0.521821975708,blue,0.22688293457,0,0
245,0.3,0.7,AA,0,left,0.353096961975,pink,0.218902826309,1,0
246,0.3,0.7,BA,1,right,0.368119955063,blue,0.184505939484,1,0
247,0.3,0.7,AA,1,left,0.385399103165,blue,0.167896032333,0,0
248,0.3,0.7,AB,1,right,0.408200025558,blue,0.583697080612,1,0
249,0.3,0.7,BA,1,right,0.350849866867,blue,0.207458972931,1,0
250,0.3,0.7,AB,1,left,0.350411176682,pink,0.631325006485,0,0
251,0.3,0.7,AB,0,left,0.340523958206,blue,0.310741186142,1,0
252,0.3,0.7,AA,1,left,0.552966117859,blue,0.481982946396,0,0
253,0.3,0.7,BB,1,left,0.557278871536,blue,0.678233146667,1,0
254,0.3,0.7,AA,1,left,0.346570968628,blue,0.435339927673,0,0
255,0.3,0.7,BB,1,left,0.519809007645,blue,0.521847963333,1,0
